time,seconds_elapsed,z,y,x
1746521839708329500,0.03232958984375,-0.18433599217534063,-0.005621712339296937,-0.14117898749411106
1746521839718319400,0.0423193359375,-0.2471750179260969,-0.013155541910231112,-0.10364376821741461
1746521839728309500,0.0523095703125,-0.22964286836683748,-0.008916881427168845,-0.10362469819076359
1746521839738299400,0.06229931640625,-0.14343641103208063,-0.013608765570446848,-0.15655607791133225
1746521839748289300,0.072289306640625,-0.1359258892714977,-0.04031871251538396,-0.21933986634351313
1746521839758279400,0.082279541015625,-0.19037877947092055,-0.0773698746021837,-0.20969035979285836
1746521839768269300,0.092269287109375,-0.20291502043902873,-0.10905965578630566,-0.1821978841681033
1746521839778259200,0.10225927734375,-0.1595598628371954,-0.0926424817316234,-0.10327365626338869
1746521839788249600,0.11224951171875,-0.13279519003033638,-0.06623663229979575,-0.05272518962398171
1746521839798238200,0.12223828125,-0.03045826662778854,-0.038733343020081516,0.015666757546178994
1746521839808228600,0.132228515625,0.12463877158164978,-0.037906098415702576,0.08420004941578954
1746521839818218500,0.142218505859375,0.284536488071084,-0.02920388265252113,0.07156246696505696
1746521839828208400,0.15220849609375,0.3925958807736635,-0.05744352338276803,0.016464922186546025
1746521839838198500,0.162198486328125,0.3941781815290451,-0.058589624677971,-0.04131185173857957
1746521839848188400,0.1721884765625,0.37465281232595443,-0.05149886269941926,-0.08196940428689121
1746521839858178300,0.18217822265625,0.3683534199208021,-0.029753990815952418,-0.11559800804648547
1746521839868168400,0.19216845703125,0.36637832045555113,0.0008194266241043805,-0.1573152257155627
1746521839878158300,0.202158447265625,0.2673655730396509,0.003181698776036501,-0.17754081560987978
1746521839888148200,0.212148193359375,0.1428460439234972,0.016668591532483696,-0.11870613012965768
1746521839898138400,0.222138427734375,-0.23395430182516574,0.43865474437624213,0.40455220296196637
1746521839908128500,0.23212841796875,-0.13009528342187404,-0.03837050105705857,-0.21294914239309726
1746521839918118400,0.242118408203125,0.025296353819966314,-0.4172795095227658,-0.4897425420567393
1746521839928108500,0.252108642578125,-0.09149988756775855,-0.254322040136531,-0.12491283928267657
1746521839938098400,0.262098388671875,-0.02366261513829231,-0.16965565185062587,-0.009859349909052252
1746521839948088300,0.27208837890625,0.010541267758607864,-0.18638678722530602,-0.006842011381871998
1746521839958078500,0.282078369140625,-0.05513561176657676,-0.20005203222334383,-0.01935439655035734
1746521839968068400,0.292068359375,-0.16618015775978565,-0.1856163143094629,-0.08524860862065106
1746521839978058200,0.302058349609375,-0.24642215373218057,-0.15306735901273785,-0.1644569872289896
1746521839988048400,0.31204833984375,-0.26155133380293843,-0.12106595459617674,-0.18644644499067217
1746521839998038300,0.322038330078125,-0.10841361296772956,-0.18171316939108073,-0.19563081824760883
1746521840008028200,0.332028076171875,0.16567980702221394,-0.35018516441509123,-0.15243888838347047
1746521840018018600,0.3420185546875,0.1637725120961666,-0.28925759830884634,-0.09530055849235504
1746521840028008400,0.352008544921875,0.0008405424773693085,-0.28410182298086584,-0.20271200868021697
1746521840037998300,0.361998291015625,-0.14416881695985792,-0.30945640979409217,-0.23038477277532218
1746521840047988500,0.371988525390625,-0.1708259377390146,-0.2423717823628336,-0.09762764973305166
1746521840057978400,0.381978271484375,-0.22675649927556513,-0.28291707017570733,-0.04978119032764807
1746521840067967500,0.391967529296875,-0.2466951254546642,-0.30714754832983016,-0.09852300940388813
1746521840077957400,0.401957275390625,-0.11371698007285594,-0.041497693166881795,-0.0625121866828762
1746521840087947300,0.411947265625,-0.07150397824347018,0.0034337007757276293,0.043271991096716374
1746521840097937400,0.4219375,-0.143730425542593,0.059646586384996765,0.13562073231246322
1746521840107927300,0.43192724609375,-0.1912561468273401,0.15062712625376878,0.15090073729706927
1746521840117917200,0.441917236328125,-0.2584270643025636,0.14978702216781675,0.09984251277092844
1746521840127907300,0.4519072265625,-0.25898002201020714,0.20174049676693975,0.04357996106734499
1746521840137897500,0.4618974609375,-0.2237906352072954,0.2560319127943367,-0.01076017120629549
1746521840147887400,0.471887451171875,-0.14527122524380684,0.2379492166802287,-0.05765857263924554
1746521840157877500,0.48187744140625,-0.12030161916017532,0.20576113058514892,-0.1704879562226124
1746521840167867400,0.491867431640625,-0.06120645611286163,0.18080657594017682,-0.28183327526068314
1746521840177857300,0.501857177734375,0.08366261807084083,0.1294835081990808,-0.31365276550538834
1746521840187847400,0.511847412109375,0.16316110219955443,0.06652677435278892,-0.3043604018293321
1746521840197837300,0.52183740234375,0.15082944389283656,-0.016734715571254492,-0.25159860652200877
1746521840207827500,0.531827392578125,0.09507891509830951,-0.0787477388266474,-0.14060957184201106
1746521840217817300,0.5418173828125,0.01969721863865852,-0.07537205184847116,-0.0788533728918992
1746521840227807200,0.55180712890625,-0.02056055746972561,-0.062018137821927666,-0.014488324883952736
1746521840237797400,0.56179736328125,-0.01963409027457237,-0.07623049530871212,0.07109989095460623
1746521840247787500,0.57178759765625,-0.04717208554148674,-0.11688749986775218,0.09044442369807511
1746521840257777400,0.58177734375,-0.12567337532639503,-0.14595833072513342,0.005588358058966696
1746521840267767600,0.591767578125,-0.17072013927698135,-0.15848770356103778,-0.14372315555159001
1746521840277757400,0.60175732421875,-0.11951251460909842,-0.1543430049717426,-0.2597968000194989
1746521840287747300,0.611747314453125,-0.056525604820251464,-0.12275551511831581,-0.2883940220157616
1746521840297737500,0.621737548828125,-0.05248422047495842,-0.014096183761209248,-0.30104229025729
1746521840307727400,0.631727294921875,-0.07126958496570587,0.06047456164173781,-0.2744170259211212
1746521840317717200,0.64171728515625,-0.13538345295786858,0.12975370344258844,-0.2706996676321141
1746521840327706400,0.651706298828125,-0.16154899082779883,0.1573024392992258,-0.2825706130919047
1746521840337696300,0.6616962890625,-0.0897159267604351,0.1665801168628037,-0.31019816807210443
1746521840347686400,0.671686279296875,0.01602642117142677,0.16341186209022998,-0.3698809948142618
1746521840357676300,0.68167626953125,0.1328776076167822,0.17592888690121472,-0.42991975885462014
1746521840367666400,0.69166650390625,0.22086393410563468,0.22965828513167796,-0.4716717921087518
1746521840377656600,0.701656494140625,0.20601941619515418,0.17199622362740336,-0.3820990366786718
1746521840387646500,0.711646484375,0.0661135173767805,-0.0072781012441962955,-0.1880572229218669
1746521840397636400,0.72163623046875,-0.061280690392851826,-0.1263786740515381,-0.09435108488094993
1746521840407626500,0.73162646484375,-0.08939093258976936,-0.09631737085208296,-0.014213823358085936
1746521840417616400,0.741616455078125,-0.03250818489491939,-0.01622833695169538,0.028120941687445156
1746521840427606300,0.751606201171875,0.012495324435830115,0.06747519765142351,0.1105593197595328
1746521840437596400,0.761596435546875,-0.07775427080988884,0.09892711495906115,0.1536667314116843
1746521840447586300,0.77158642578125,-0.19440730433464048,0.07628153137620539,0.12439239560514688
1746521840457576200,0.781576171875,-0.24727906282246112,0.025465463309176265,0.06488143656486645
1746521840467566600,0.791566650390625,-0.255384627866745,-0.032356976388581093,0.038550036042160354
1746521840477556500,0.801556396484375,-0.2984656447023153,-0.018157624513842164,0.03309266568541061
1746521840487546400,0.81154638671875,-0.3136334032177925,-0.00170088563375175,0.003421215753490105
1746521840497536500,0.82153662109375,-0.2786550288170576,-0.020442593645863233,-0.046694846251443954
1746521840507526400,0.8315263671875,-0.24564298605322837,-0.06166234665419906,-0.10553637703098356
1746521840517516300,0.841516357421875,-0.22526129228174685,-0.056087834457494316,-0.18059059510193765
1746521840527506400,0.85150634765625,-0.16385259159505366,-0.03270155204255134,-0.24860842999638988
1746521840537496300,0.861496337890625,-0.07616554031372069,-0.034948965643160045,-0.2887913690365851
1746521840547486200,0.871486328125,0.020198153898119926,-0.014989369741268455,-0.30178065100181845
1746521840557476400,0.881476318359375,0.10252689301669597,0.0023146336179226635,-0.2702971329795196
1746521840567466200,0.89146630859375,0.1611158601075411,-0.01569196505267173,-0.2057779721220955
1746521840577456000,0.9014560546875,0.18889935456812382,-0.04936966865099966,-0.17971399493049828
1746521840587446300,0.9114462890625,0.16710837852060795,-0.06544898905344307,-0.13089001399613917
1746521840597436200,0.921436279296875,0.1266547875791788,-0.05259535269923508,-0.057631675499165425
1746521840607426000,0.931426025390625,0.060006432673335074,-0.023508520555123685,-0.02761708381853532
1746521840617416200,0.941416259765625,0.019501403805613517,-0.003159267748519778,0.011653603781526908
1746521840627406300,0.95140625,-0.057873512297868725,0.027076222974061964,0.0002094962985254824
1746521840637396200,0.961396240234375,-0.15283260040879248,0.04014320981800556,-0.05827464044466615
1746521840647385300,0.97138525390625,-0.2143710649549961,0.039157340585812925,-0.08126524720606394
1746521840657375200,0.981375244140625,-0.23396774582862853,0.023654870223253965,-0.13282653501667083
1746521840667365400,0.991365478515625,-0.24785072523057458,-0.030800942585617302,-0.21293264791602268
1746521840677355300,1.001355224609375,-0.20420915190279482,-0.07331007781736552,-0.25626767604527995
1746521840687345200,1.01134521484375,-0.11764788978099823,-0.07511910000070929,-0.25871311470232905
1746521840697335300,1.021335205078125,0.013123100945353508,-0.0614621113743633,-0.242547979179956
1746521840707325200,1.0313251953125,0.09317571182548999,-0.05767177918069064,-0.21231005903827024
1746521840717315000,1.041315185546875,0.08532090667188168,-0.05678191766887903,-0.14877839311454444
1746521840727305200,1.05130517578125,0.08935293866693973,-0.08799692094810306,-0.15881346491668372
1746521840737295000,1.061295166015625,0.04711187978684902,-0.11701660614013672,-0.16401096049454061
1746521840747285200,1.07128515625,0.04325871149003505,-0.07644925262592732,-0.12404990231040865
1746521840757275400,1.081275390625,0.009823474878072738,-0.051220630279928445,-0.10781685265097767
1746521840767265300,1.091265380859375,0.03761690621078014,-0.039591348088905215,-0.10768084171377122
1746521840777255400,1.10125537109375,0.057090837487578386,-0.007496347104758024,-0.04303354269834235
1746521840787245300,1.111245361328125,-0.005378185907006263,0.026320143909752368,-0.04777772328443825
1746521840797235200,1.121235107421875,-0.2064718361377716,-0.018406886567175387,-0.15888857597950845
1746521840807225300,1.131225341796875,-0.3291588891297579,-0.06596665625199676,-0.21425653519723564
1746521840817215200,1.14121533203125,-0.2909761657297611,-0.05630217132791877,-0.1657093253776431
1746521840827205000,1.151205078125,-0.19588731375932691,-0.02432378246076405,-0.10495536227263509
1746521840837195300,1.1611953125,-0.15100304689407348,-0.01969590346440673,-0.09988185840062797
1746521840847185400,1.171185302734375,-0.11965513795018196,-0.016347689015045762,-0.12422860161187127
1746521840857175300,1.18117529296875,-0.11557692872583865,-0.03964263988472521,-0.1529349830710329
1746521840867165400,1.19116552734375,-0.010305120915174484,-0.03910407602861524,-0.13491092180898412
1746521840877155300,1.2011552734375,0.032305355799198146,-0.03722016197815537,-0.18883425344265997
1746521840887145200,1.211145263671875,0.07297697340548039,-0.038823505521565674,-0.21912302698874844
1746521840897135400,1.22113525390625,0.06845394302308559,-0.03190780784897506,-0.1517595095508732
1746521840907125200,1.231125244140625,0.06290098507106304,-0.02743884574137628,-0.07536867258129641
1746521840917115100,1.241115234375,0.03587386193573475,0.005683671659603715,-0.0848947719479911
1746521840927105300,1.251105224609375,0.02211246308684349,0.0006976999405771493,-0.1631538504748605
1746521840937095200,1.26109521484375,-0.001585223364830017,-0.01829056671112776,-0.1684268589743413
1746521840947085000,1.2710849609375,-0.04387830469310283,-0.011431640727072954,-0.14049999225400386
1746521840957075500,1.281075439453125,-0.1355254917770624,-0.0010408873550593852,-0.07568517291825264
1746521840967065300,1.2910654296875,-0.23679858534038065,-0.06233114929385483,-0.17754457846954463
1746521840977055200,1.30105517578125,-0.3131692928373813,-0.06903166984580457,-0.2740507681583054
1746521840987045400,1.31104541015625,-0.30657179426848885,-0.012547639144957065,-0.139288424507156
1746521840997035300,1.32103515625,-0.21610592592358588,0.017601561533659695,0.013809293111227451
1746521841007024400,1.3310244140625,-0.10938918000161647,0.013405059691891073,0.024247264892142264
1746521841017014300,1.34101416015625,-0.07908639619648457,-0.0596096884407103,-0.08892214603424071
1746521841027004200,1.351004150390625,-0.04751987606585026,-0.1329574679199606,-0.16682437394745647
1746521841036994300,1.360994384765625,-0.006910802301764488,-0.12520699992366136,-0.12935427406253291
1746521841046984200,1.370984130859375,0.031792730101943015,-0.05804287751540541,-0.06045682505564764
1746521841056974000,1.38097412109375,0.07875555680692195,-0.014363821721449493,-0.05342268863515928
1746521841066964200,1.390964111328125,0.06718202339112758,0.030074235746264454,-0.09939370955750346
1746521841076954400,1.400954345703125,0.015761632755398748,0.06925583399049938,-0.08997947306744754
1746521841086944300,1.4109443359375,-0.00512041175365448,0.07754632714763283,-0.07180234013553709
1746521841096934400,1.420934326171875,0.009808861830830573,0.013911401778832077,-0.09558869125135243
1746521841106924300,1.43092431640625,0.04635083228647709,0.0032526451203972098,-0.09905947263445705
1746521841116914200,1.4409140625,-0.0020335516542196275,0.015087605951353906,-0.07105694686202332
1746521841126904300,1.450904296875,-0.13403846808969974,-0.003492591356113553,-0.07764158594934269
1746521841136894200,1.460894287109375,-0.2519979080379009,-0.06515000610686839,-0.15416490845847874
1746521841146884000,1.470884033203125,-0.2685205882936716,-0.08596402688100933,-0.20538407743368298
1746521841156874200,1.480874267578125,-0.17387363487184046,-0.03853175603337586,-0.13003823773870243
1746521841166864100,1.490864013671875,-0.09569149403870106,-0.008326660449057817,-0.08245928842937573
1746521841176854300,1.500854248046875,-0.06974982805252075,0.004804989128932357,-0.08152257383484393
1746521841186844400,1.510844482421875,-0.052964112946391105,-0.028659035186097023,-0.13642843196615576
1746521841196834300,1.520834228515625,-0.056559507089853286,-0.04828680531773716,-0.1596429745433852
1746521841206824200,1.53082421875,-0.012754852154850959,0.01975318660959601,-0.1449615565064363
1746521841216814300,1.540814453125,0.0009176993668079376,0.05288801550287753,-0.12138115802519023
1746521841226804200,1.55080419921875,0.012191373053193092,0.033489304886758324,-0.12141333412858657
1746521841236794000,1.560794189453125,0.018584873482584953,-0.0004494242679327726,-0.11926875984794459
1746521841246784300,1.5707841796875,-0.032273207095265384,-0.06805139010418206,-0.15737554106805474
1746521841256774100,1.580774169921875,-0.09658172087669371,-0.07463730783313513,-0.15637323215771465
1746521841266764300,1.590764404296875,-0.10568623383045196,-0.021980032346211372,-0.12468176134000532
1746521841276754200,1.600754150390625,-0.04386778329908848,0.03931947234496474,-0.10690505330199375
1746521841286744300,1.610744384765625,0.0031388825476169582,0.05977857873421162,-0.09128739559454843
1746521841296734200,1.620734130859375,-0.0417447997957468,0.0389148005342111,-0.10830196928679943
1746521841306724400,1.630724365234375,-0.14082652079463004,0.016703005258738992,-0.10195823541642166
1746521841316714200,1.64071435546875,-0.1764683275401592,0.0031924758983775973,-0.09564617532594129
1746521841326704400,1.650704345703125,-0.17980536300837993,-0.010096263937465846,-0.10106985347564332
1746521841336693200,1.660693359375,-0.13903613024652003,-0.026849611143954098,-0.08504916792525909
1746521841346683100,1.67068310546875,-0.10579027872681616,-0.017648213686980305,-0.07904190860078669
1746521841356673300,1.68067333984375,-0.12763678435385226,-0.001915185971558094,-0.06079823150499723
1746521841366663200,1.6906630859375,-0.14501929630935192,-0.005750307155027985,-0.07998847786905243
1746521841376653300,1.7006533203125,-0.16156068126559256,-0.03064315820802003,-0.16406778698200358
1746521841386643200,1.710643310546875,-0.20242986727058887,-0.01842000177707523,-0.15506868889778852
1746521841396633000,1.720633056640625,-0.1531160935252905,0.022114070522040126,-0.07959751492324285
1746521841406623500,1.73062353515625,-0.12476795091927051,0.030951055113412437,-0.08928073194725439
1746521841416613400,1.74061328125,-0.11947452068626879,0.019348880125023424,-0.12981573582813144
1746521841426603300,1.750603271484375,-0.10502455505132674,-0.009962883348762988,-0.16372032525120303
1746521841436593400,1.760593505859375,-0.0803571467846632,-0.033501543313823635,-0.15439340171841903
1746521841446583300,1.770583251953125,-0.0049158290922641755,-0.040605347437039016,-0.09973521647155284
1746521841456573200,1.7805732421875,0.028816344639658927,-0.008491422556713223,-0.08159611399509012
1746521841466563300,1.790563232421875,-0.005220949518680572,0.023213227402977644,-0.09646021338887512
1746521841476553200,1.80055322265625,-0.10152852962911128,0.0072714523077011105,-0.14727615359174087
1746521841486543000,1.810543212890625,-0.12050970895290374,-0.016485343920066953,-0.12887916736407204
1746521841496533200,1.820533203125,-0.12847089709043502,0.017477496762573718,-0.0690629417669028
1746521841506523400,1.8305234375,-0.1384492702692747,0.04857628978360444,-0.07709664715137332
1746521841516512800,1.8405126953125,-0.12724106303453445,0.03955138140469789,-0.11025237270221114
1746521841526503000,1.8505029296875,-0.1045382328391075,-0.007912745885923504,-0.15142353732846675
1746521841536493000,1.8604931640625,-0.06984393607676029,-0.014772840913757681,-0.1643504581145942
1746521841546483000,1.87048291015625,-0.01803600742816925,-0.011928703529015183,-0.18115014694714918
1746521841556473000,1.88047314453125,-0.0040104046851396555,-0.01121025306135416,-0.17944500526338814
1746521841566463000,1.890462890625,-0.016528525474667547,-0.01785765518657863,-0.17072709874073042
1746521841576452900,1.900452880859375,-0.018974165061116217,-0.023436405166983604,-0.17383779637347907
1746521841586443000,1.910443115234375,-0.006470072796940803,0.0005881020862609148,-0.11618311445806175
1746521841596433000,1.920432861328125,-0.030035072779655454,0.052981575537845486,-0.07005352370683103
1746521841606422800,1.9304228515625,-0.052824412214756006,0.054389761835336684,-0.10330565883684903
1746521841616413000,1.940412841796875,-0.06436988857984542,0.02694792041927576,-0.14234671609923244
1746521841626402800,1.95040283203125,-0.08192600353658198,0.01951857413612306,-0.14440600498290732
1746521841636393000,1.96039306640625,-0.1273643971532583,0.047961993810161946,-0.14252603645520284
1746521841646383000,1.970383056640625,-0.16040975766479967,0.06384535324908792,-0.17033915886906906
1746521841656373000,1.980373046875,-0.1901683515906334,0.022425986015424133,-0.15410371632315217
1746521841666363000,1.99036279296875,-0.19883973382413386,-0.010095131426304579,-0.1591301479167305
1746521841676352000,2.00035205078125,-0.18601181643307207,0.009974792982265352,-0.1427630418151617
1746521841686342000,2.010341796875,-0.17999182549118994,0.022224764354899524,-0.13324600253775715
1746521841696332000,2.02033203125,-0.09035773179531097,0.03794453072994947,-0.12194980649231
1746521841706322000,2.030322021484375,0.003006196078658104,0.020850626457482577,-0.109985118334461
1746521841716311800,2.040311767578125,0.1121107139199972,0.01649761887975037,-0.06969391488051041
1746521841726302000,2.050302001953125,0.19944997467696665,0.006285729205980897,-0.06651649042079225
1746521841736291800,2.060291748046875,0.20882687483131884,-0.003912716464325785,-0.09639852806320413
1746521841746282000,2.070281982421875,0.19505027841329572,-0.022393325854837894,-0.10709604582944884
1746521841756272000,2.080272216796875,0.11330313857495784,-0.0061867988761514425,-0.10249646134581417
1746521841766262000,2.090261962890625,0.0019493805021047592,0.022752879882231354,-0.1101778826938942
1746521841776252000,2.100251953125,-0.11840484562814235,0.04885835812799632,-0.1017531138989143
1746521841786242000,2.110241943359375,-0.22715397416055202,0.04896707919947803,-0.09140691205468028
1746521841796232000,2.12023193359375,-0.23423078067898748,0.055763680537045,-0.125811998345796
1746521841806222000,2.13022216796875,-0.17685469650924204,0.04078961796276271,-0.14025854818094521
1746521841816212000,2.1402119140625,-0.1559860960036516,0.010836085986718536,-0.11622587588755413
1746521841826201900,2.150201904296875,-0.11837269692420958,-0.008610372761264444,-0.14126980758272112
1746521841836192000,2.16019189453125,-0.10578677159547806,0.001760652996972203,-0.1501779029152356
1746521841846182000,2.170181884765625,-0.060334349453449246,0.001032704048603773,-0.11380018311059102
1746521841856172000,2.180172119140625,-0.027626842594146727,0.0140323978099972,-0.09863711903654038
1746521841866162200,2.190162109375,0.02289922955036163,0.00020779753178358076,-0.10671790583259426
1746521841876152000,2.200152099609375,0.03753215053677559,0.006123670512065291,-0.12608199265990405
1746521841886142000,2.210141845703125,0.032300679624080654,0.03297770210281014,-0.13385543967299163
1746521841896132000,2.220132080078125,0.03429506831169128,0.04002418654821813,-0.11581574245039374
1746521841906122000,2.2301220703125,0.02854161935150623,0.036832331704348326,-0.10422854583542793
1746521841916112000,2.24011181640625,0.03363748118579388,0.029060309463366865,-0.07354912900393829
1746521841926102000,2.25010205078125,-0.0008177461236715316,0.023252646097913384,-0.07435849089175463
1746521841936092000,2.260091796875,-0.036541970455646514,-0.0054277241371572015,-0.09823308654660358
1746521841946081800,2.270081787109375,-0.045724224820733066,-0.013372326466068625,-0.09511672635804862
1746521841956072000,2.280072021484375,-0.08525485569834709,-0.003616509996727109,-0.07440342601202428
1746521841966062000,2.29006201171875,-0.1162637419462204,0.006242839912325143,-0.06853952068099751
1746521841976052000,2.300052001953125,-0.15225450825989245,-0.021606413260847328,-0.08308136585047468
1746521841986042000,2.3100419921875,-0.18577216245830058,-0.022348463799804447,-0.10385483541851863
1746521841996032000,2.320031982421875,-0.22970248959958553,-0.0005088263049721717,-0.10885091753960587
1746521842006021000,2.330021240234375,-0.2046118874847889,0.01796370937693864,-0.11626757787112146
1746521842016011000,2.340010986328125,-0.1401098969578743,0.0041865284370258445,-0.08970276588476263
1746521842026001000,2.3500009765625,-0.06907470526993274,0.008284611405618487,-0.05755257324781268
1746521842035991000,2.359990966796875,-0.03680442078411579,-0.017794892148673535,-0.06602844204236753
1746521842045981000,2.36998095703125,-0.03521042959094047,-0.03781663003396243,-0.08385246895398013
1746521842055970800,2.379970703125,-0.04903144967257976,-0.02494311993550509,-0.060749213864654296
1746521842065961000,2.3899609375,-0.07378302909135818,-0.004681253151409328,-0.045664238261803984
1746521842075950800,2.399950927734375,-0.04956979433298111,-0.000519238101132214,-0.08038208942967466
1746521842085941000,2.40994091796875,-0.031140403673052788,-0.004930880530923605,-0.10873931952444836
1746521842095931100,2.41993115234375,-0.04083469921350479,-0.009300108591094612,-0.1563296122116968
1746521842105921000,2.429921142578125,-0.0574257685303688,-0.0039759178936481475,-0.15457926141303033
1746521842115911000,2.439910888671875,-0.021339140626788138,-0.009486388410814105,-0.15922869465406983
1746521842125901000,2.449901123046875,0.018060557347536085,-0.02743723830617964,-0.15872368600768968
1746521842135891000,2.459890869140625,0.0009095160603523254,-0.04346698394585401,-0.1599923177040182
1746521842145880800,2.469880859375,-0.010697335103154182,-0.039385852112062275,-0.1607141291725449
1746521842155871000,2.47987109375,0.0010918868899345397,-0.04077478571981191,-0.152411689849291
1746521842165860900,2.48986083984375,-0.02343348255753517,-0.019489055780693886,-0.13687381937978788
1746521842175850800,2.499850830078125,-0.059141340276598925,-0.01940225428007543,-0.10080483673075213
1746521842185841200,2.509841064453125,-0.09246727129518985,-0.012102927584759891,-0.10484225728698074
1746521842195831000,2.5198310546875,-0.06404489440917968,0.00718443161137402,-0.08677070362139493
1746521842205821000,2.529821044921875,-0.02279869178533554,0.045960408196784555,-0.0590142432982102
1746521842215811000,2.53981103515625,-0.010870353582501411,0.0657259793639183,-0.019414985897485165
1746521842225801000,2.549801025390625,-0.019551672688126562,0.03192844877820462,-0.03206924548838287
1746521842235790800,2.559790771484375,-0.0680091218650341,-0.006641483841091394,-0.03494131205966696
1746521842245781000,2.569781005859375,-0.08294599423408508,-0.02113459449801594,-0.04780464782398194
1746521842255771000,2.57977099609375,-0.11705401554107665,-0.026446108376979825,-0.06569781271535903
1746521842265761000,2.589760986328125,-0.1287549747288227,-0.046846360718458886,-0.10806249797511845
1746521842275751000,2.5997509765625,-0.1358481478601694,-0.0651170902179554,-0.15403686163201927
1746521842285740800,2.60974072265625,-0.13458265796899796,-0.07450725171267986,-0.16774682255461812
1746521842295731000,2.61973095703125,-0.16431845554113386,-0.0696502036029473,-0.18323102660812438
1746521842305721000,2.62972119140625,-0.1575771645873785,-0.051049292301014064,-0.21487579960674047
1746521842315711000,2.6397109375,-0.15086860685944556,-0.03600190876219422,-0.2187692268487066
1746521842325700000,2.6497001953125,-0.12114099259376525,-0.047997430449724196,-0.212610795550514
1746521842335690000,2.65968994140625,-0.07496960852742195,-0.0720954413305968,-0.1926561863509938
1746521842345680000,2.669679931640625,0.014150105905532836,-0.08285426083002238,-0.16540239658663047
1746521842355670000,2.679669921875,0.07066343576610087,-0.08277348721139133,-0.13226433455664663
1746521842365660000,2.689659912109375,0.07217384032905101,-0.056393502873182295,-0.09083026294419541
1746521842375650000,2.699650146484375,0.04681844979822635,-0.045476716333068906,-0.10059988874318078
1746521842385640000,2.709639892578125,-0.02263794826567173,-0.0181754158988595,-0.15115635602595284
1746521842395629800,2.7196298828125,-0.08145078724026679,0.030717940477281807,-0.17432735172240063
1746521842405620000,2.729619873046875,-0.11347674157619475,0.0478381847674027,-0.16617743607973678
1746521842415610000,2.739610107421875,-0.14283318444192408,0.05186736721824854,-0.1656573394620791
1746521842425600000,2.74960009765625,-0.11131108797490596,0.04759411034584045,-0.14705149625670164
1746521842435590100,2.759590087890625,-0.050123921084403986,0.039279469128139316,-0.12124242540793492
1746521842445580000,2.769580078125,0.004835749593377113,0.01710709254760295,-0.06119023563042283
1746521842455570000,2.77956982421875,0.055501522469520566,-0.016570172659307717,-0.05452180898347869
1746521842465560000,2.78956005859375,0.05575988114476203,-0.04896371819861233,-0.029916597499139604
1746521842475550000,2.799550048828125,0.04570201298892498,-0.0774347199993208,-0.0355714631893672
1746521842485539800,2.809539794921875,0.05554653065502643,-0.10114446221496909,-0.017098671779129652
1746521842495530000,2.819530029296875,0.04789923077225685,-0.11432345806602388,-0.019374379892461
1746521842505519900,2.829519775390625,-0.03258709535002708,-0.12360212201029061,-0.0345942339213565
1746521842515510000,2.839510009765625,-0.12890168972313404,-0.09607077567987143,-0.07701154441749676
1746521842525500400,2.84950048828125,-0.16852116792798041,-0.083730605273135,-0.12477777819354087
1746521842535490600,2.859490478515625,-0.16163900719881058,-0.04970017924699932,-0.11593708554143085
1746521842545480400,2.86948046875,-0.14761983419656752,-0.02686429725643247,-0.09166028402755036
1746521842555470600,2.879470703125,-0.1105944641381502,0.0034506884431466456,-0.09357008143793791
1746521842565460700,2.889460693359375,-0.10246142656505107,0.007475523512437939,-0.081242569583375
1746521842575450600,2.89945068359375,-0.0863917507737875,0.0012422551460564135,-0.13026196349197997
1746521842585440500,2.9094404296875,-0.04414893832802772,-0.016688099950551986,-0.15693557874821126
1746521842595430700,2.9194306640625,-0.037085575813055036,-0.06060724811069667,-0.1372059374109842
1746521842605420500,2.929420654296875,-0.024810616129636764,-0.06327058556843548,-0.15236567701678722
1746521842615410700,2.93941064453125,-0.02138356429040432,-0.04489705328159034,-0.1549561867003329
1746521842625399600,2.949399658203125,-0.03201660198569298,-0.03476845797710121,-0.13984304444892331
1746521842635389400,2.959389404296875,-0.1071399397701025,-0.027534561200812456,-0.1507971855910495
1746521842645379600,2.969379638671875,-0.17089841845333575,-0.007653291232138872,-0.18310486121149733
1746521842655369500,2.979369384765625,-0.19519407079815865,-0.028052630258165297,-0.19135378024922683
1746521842665359600,2.989359619140625,-0.17180910355746745,-0.05568776575662195,-0.17636229161610825
1746521842675349500,2.999349609375,-0.13649229098260401,-0.06683152945302426,-0.15168353997152298
1746521842685339600,3.009339599609375,-0.08666706058382988,-0.06618851884175092,-0.13269627796681596
1746521842695329800,3.019329833984375,-0.025614333727955817,-0.049081207098439335,-0.13834621175359935
1746521842705319700,3.029319580078125,-0.0021177228063344955,-0.04817139877714217,-0.14103398953285068
1746521842715309600,3.0393095703125,0.01840191813111305,-0.022251981155388057,-0.11657728314111009
1746521842725299700,3.0492998046875,-0.01567746160328388,-0.029892303308099506,-0.146728968037758
1746521842735289600,3.05928955078125,-0.06455927367210387,-0.025566110672056674,-0.1756841366262175
1746521842745279500,3.069279541015625,-0.07708090159296989,-0.031321532393619414,-0.16544625399466603
1746521842755269600,3.07926953125,-0.07089198382496834,-0.03165803433898836,-0.16214333999175579
1746521842765259500,3.089259521484375,-0.08445756784081458,-0.03058605772592127,-0.160574136179965
1746521842775249400,3.09924951171875,-0.08860182803869247,-0.022402385944128037,-0.16098375816047192
1746521842785239800,3.10923974609375,-0.09589198504686355,-0.02059716315306723,-0.13228216247428207
1746521842795229700,3.119229736328125,-0.0933019685536623,-0.009928286959417163,-0.11026064734021201
1746521842805219600,3.129219482421875,-0.1210737725764513,-0.011164331560395657,-0.12259902764866128
1746521842815209700,3.139209716796875,-0.13688041351735591,-0.028930107212439177,-0.12254855783674866
1746521842825199600,3.14919970703125,-0.144483874258399,-0.032006592048332096,-0.0850352033319883
1746521842835189500,3.159189453125,-0.1605178942143917,-0.021629355745017526,-0.058356674438621844
1746521842845179600,3.1691796875,-0.18482932865023613,-0.00441737805083394,-0.029164135164022446
1746521842855169500,3.17916943359375,-0.16085633238852023,-0.02260101378876716,-0.04692121605295688
1746521842865159400,3.189159423828125,-0.13273089262247084,-0.028823176239244637,-0.06424370491690934
1746521842875149600,3.199149658203125,-0.08353460777699948,-0.016061090626008807,-0.08371385506773367
1746521842885139700,3.2091396484375,-0.04017711208760738,-0.01862151569854468,-0.07794769275644793
1746521842895129600,3.219129638671875,0.01757891131043434,-0.0413363651253283,-0.050818771480768916
1746521842905119700,3.22911962890625,0.06910393136441707,-0.019531579748168586,-0.07772709054201841
1746521842915109600,3.239109619140625,0.06935235316753387,-0.019856025929562746,-0.07559838968394324
1746521842925099500,3.249099609375,0.051534956926107406,-0.019699374063126742,-0.04494222586387768
1746521842935088600,3.259088623046875,0.040760464933514595,0.012802746417187153,-0.044542394625023005
1746521842945078500,3.26907861328125,0.04703998359441757,0.02371978868562728,-0.049028837590385226
1746521842955068700,3.279068603515625,0.02354337267279625,0.04600706035010516,-0.06107809875914827
1746521842965058600,3.28905859375,0.018329437416791914,0.048410833556205034,-0.09548919466594234
1746521842975048400,3.29904833984375,-0.0051233343631029125,0.03294752616025507,-0.090067662807554
1746521842985038600,3.30903857421875,-0.012401216411590575,0.01833634208161384,-0.05939569863015785
1746521842995028500,3.319028564453125,-0.009337737187743186,-0.014147037165611982,-0.06298406024463474
1746521843005018400,3.329018310546875,-0.02347498361170292,-0.0007725552750751375,-0.06610801921775564
1746521843015008800,3.3390087890625,-0.07861936320662498,-0.0035612726781517265,-0.0646673736890778
1746521843024998700,3.34899853515625,-0.14799275916218757,-0.01080452180467546,-0.05779184363009408
1746521843034988500,3.358988525390625,-0.20945815847218036,-0.027627280985563992,-0.0669441777809523
1746521843044978700,3.368978759765625,-0.23399171122610568,-0.044032983798161146,-0.10174746960941701
1746521843054968600,3.378968505859375,-0.19392215116620062,-0.05542787271142006,-0.1307978056680411
1746521843064958500,3.38895849609375,-0.1489320858389139,-0.05445318246036768,-0.13683690316919236
1746521843074948600,3.398948486328125,-0.08405015608370303,-0.049778651310689745,-0.13725116479219868
1746521843084938500,3.4089384765625,-0.010196984365582466,-0.030545798780769108,-0.13828792396141215
1746521843094928400,3.418928466796875,0.004699555993080139,-0.03312364991214126,-0.10042259594751521
1746521843104918500,3.42891845703125,0.011084873116016388,-0.04121197156067937,-0.08723622050760313
1746521843114908700,3.43890869140625,0.032467268362641334,-0.046298188783787185,-0.11058308422761037
1746521843124898600,3.448898681640625,-0.002235211706161499,-0.03843790373746305,-0.1292428861099295
1746521843134888700,3.458888671875,0.009637596917152404,-0.004439626415260136,-0.1071295097076334
1746521843144878600,3.468878662109375,-0.027526304829120635,0.036168460968136786,-0.10749521948117763
1746521843154868500,3.478868408203125,-0.07003858186602592,0.03402724768836051,-0.12496261497484519
1746521843164858600,3.488858642578125,-0.0957896937161684,0.028281068719178435,-0.1173148949669674
1746521843174848500,3.4988486328125,-0.12546470101177692,0.023339264935441313,-0.12199490600936114
1746521843184838700,3.508838623046875,-0.13722703499794006,0.030368907843902705,-0.09367746906885877
1746521843194828500,3.51882861328125,-0.11774082876145839,0.005410261545702815,-0.07779779942436144
1746521843204818400,3.528818359375,-0.11263035387992858,-0.018896606312878428,-0.06974652185058221
1746521843214808600,3.53880859375,-0.12412614588439463,-0.029711357250623405,-0.03545950898118317
1746521843224798700,3.548798828125,-0.13129355329573153,-0.05192125282995402,-0.040430502326786515
1746521843234788600,3.55878857421875,-0.10437398218810558,-0.06908449601158499,-0.08576793805332854
1746521843244777700,3.56877783203125,-0.05818973864018917,-0.07650306517239659,-0.08762297306917607
1746521843254767600,3.578767578125,-0.05377835193872452,-0.0682244085835293,-0.07600634943032637
1746521843264757800,3.5887578125,-0.038300212299823756,-0.06731818045880646,-0.09058098262455314
1746521843274747600,3.59874755859375,-0.020410335344076155,-0.040871195298992094,-0.09568263487881049
1746521843284737500,3.608737548828125,-0.006358429116010665,-0.04374130737520754,-0.10947302236016838
1746521843294727700,3.618727783203125,-0.026375965750217435,-0.04431242179404944,-0.13479589886087923
1746521843304717600,3.628717529296875,-0.06210135912597179,-0.019441709507629273,-0.11316878987187519
1746521843314707500,3.63870751953125,-0.08198153311610222,0.020858882829174398,-0.06371073055136948
1746521843324697600,3.648697509765625,-0.09365092812180519,0.043878450823575256,-0.05556413937695324
1746521843334687700,3.658687744140625,-0.10518588309288024,0.032773229039274154,-0.07123663254417478
1746521843344677600,3.668677734375,-0.1334866794258356,0.01859101096242666,-0.09738834281815216
1746521843354667800,3.678667724609375,-0.11917056930363178,-0.008859269488416612,-0.10730314924148843
1746521843364657700,3.68865771484375,-0.06852934634685516,-0.02046323457509279,-0.10763760536024346
1746521843374647600,3.6986474609375,-0.002926116579771042,-0.0020593436826020477,-0.09621283276537433
1746521843384637700,3.7086376953125,-0.00014729951620101928,-0.011839600473456084,-0.08348947172733023
1746521843394627600,3.718627685546875,-0.02155658276975155,-0.01963116766512394,-0.09429644121741876
1746521843404617500,3.728617431640625,-0.05324117632210254,-0.03199435362126678,-0.08419966582329944
1746521843414607600,3.738607666015625,-0.11720657575428485,-0.028963059633970258,-0.10888380602905526
1746521843424597500,3.748597412109375,-0.1748883648723364,-0.023306860503181814,-0.12201041410574688
1746521843434587400,3.75858740234375,-0.1706733775258064,-0.010302161773107945,-0.08354549449719488
1746521843444577800,3.768577880859375,-0.12433949637413025,0.00008848200105130672,-0.07777648264169693
1746521843454567700,3.778567626953125,-0.10905483348071575,0.015476459138467907,-0.09812730635087936
1746521843464557600,3.7885576171875,-0.08799334075152873,-0.014199863331392407,-0.11752797146206721
1746521843474547700,3.798547607421875,-0.04971241767406463,-0.049008397590555246,-0.08173409769367426
1746521843484537600,3.80853759765625,-0.031121114450693127,-0.06362338106147944,-0.08936309473477304
1746521843494527500,3.818527587890625,0.007744330516457557,-0.031383893572725356,-0.1197502871540375
1746521843504517600,3.828517578125,0.03737549867033958,-0.0011583031896501778,-0.1182208673633635
1746521843514507500,3.838507568359375,0.013463292685151099,0.012205218915455042,-0.07733597233258187
1746521843524497000,3.848496826171875,-0.02150163771212101,0.04142261863667518,-0.04685750316698104
1746521843534486800,3.85848681640625,-0.08640636382102966,0.03977981986571103,-0.07797490955693646
1746521843544477000,3.868476806640625,-0.1259352411329746,0.030803901727683842,-0.11623544743349774
1746521843554465800,3.8784658203125,-0.1309820031285286,0.024134543498978017,-0.08573558841999619
1746521843564456000,3.8884560546875,-0.08969956014752388,0.04485365253128111,-0.06641781581928953
1746521843574446000,3.898446044921875,-0.028531097957491872,0.015137144181504844,-0.082808722921554
1746521843584436000,3.90843603515625,0.02011690535545349,-0.024588461278937757,-0.10691131864599883
1746521843594425900,3.91842578125,-0.011519172880053519,-0.0644770752813667,-0.1417816843613051
1746521843604416000,3.928416015625,-0.04099193560183048,-0.07848079498615115,-0.1551631622482091
1746521843614406000,3.938406005859375,0.018009119421243665,-0.06553513296693562,-0.14892600315799936
1746521843624395800,3.948395751953125,0.011188918012380599,-0.032202260750904675,-0.14478704018974675
1746521843634386000,3.958385986328125,-0.014609540110826491,-0.009552585514821112,-0.11222685111295432
1746521843644375800,3.968375732421875,-0.012092588853836059,-0.013223675242997706,-0.10414304124275221
1746521843654365700,3.97836572265625,0.007987491622567176,0.005329926318489015,-0.12165065914895384
1746521843664356000,3.988356201171875,-0.011848843225836753,0.04647763700392097,-0.14674926190711557
1746521843674346000,3.998345947265625,-0.06818623199760913,0.09016597208287566,-0.13058118550898506
1746521843684335900,4.0083359375,-0.09836392811834811,0.06697703887093812,-0.10777637451011687
1746521843694326000,4.018325927734375,-0.12873685455024242,0.04526194107122719,-0.07448169714631513
1746521843704316000,4.02831591796875,-0.10845043784677982,0.022106544802710414,-0.0777620887901634
1746521843714305800,4.038305908203125,-0.08851473427712916,0.00799724583160132,-0.061182582046929744
1746521843724296000,4.0482958984375,-0.06545885286033153,-0.007645254056155681,-0.029240013411827383
1746521843734285800,4.058285888671875,-0.09134206665754317,-0.022686865441314874,-0.022354857007972895
1746521843744275700,4.068275634765625,-0.10436813696920871,-0.019113610064424573,-0.04092637781864032
1746521843754265900,4.078265869140625,-0.09828326409757136,-0.0003299626067280769,-0.03645745224365964
1746521843764256000,4.088256103515625,-0.11423662003278731,0.0148019939430058,-0.01862224635090679
1746521843774246000,4.098245849609375,-0.11627718594968318,0.02040503811445087,-0.012083784492872654
1746521843784236000,4.108236083984375,-0.1078062947243452,-0.006345313906110823,-0.044322249068319795
1746521843794226000,4.118225830078125,-0.06039338616430759,-0.030149456406943498,-0.07952604798907413
1746521843804215800,4.1282158203125,-0.054255906322598454,-0.0307948416383937,-0.08388139365436509
1746521843814206000,4.1382060546875,-0.11785597957372665,-0.010180508154816924,-0.09224279662324116
1746521843824195800,4.14819580078125,-0.09828735575079918,-0.009139036277867853,-0.11349075183523818
1746521843834185700,4.158185791015625,-0.04209726649522781,0.026134887003339824,-0.10935779848266393
1746521843844176000,4.16817578125,-0.020202830073237418,0.051436318857222794,-0.0850119503205642
1746521843854165800,4.178165771484375,-0.037359716579318046,0.05120397140607238,-0.058132656424399465
1746521843864155600,4.18815576171875,-0.042352118039131165,0.015304171311482786,-0.055976848363690074
1746521843874144800,4.198144775390625,-0.05057283389568329,-0.023356764059513806,-0.09555623202016576
1746521843884134700,4.208134765625,-0.07414251005351542,-0.0012176686940714716,-0.10112809560205786
1746521843894125000,4.218125,-0.10488602336347103,0.030031967507116494,-0.0768349457415752
1746521843904115000,4.228114990234375,-0.1504921747624874,0.04402498315479606,-0.05062734056189656
1746521843914104800,4.238104736328125,-0.15606208384931086,0.03699650929011404,-0.053514056713040915
1746521843924095000,4.248094970703125,-0.12247954772114752,0.018975955159403382,-0.04788100099582225
1746521843934084900,4.2580849609375,-0.07201251228749751,0.012264036430604756,-0.032657128378935155
1746521843944074800,4.26807470703125,-0.017632687324285506,-0.002278027934581041,-0.0009737586692906916
1746521843954065000,4.27806494140625,-0.009447627303004264,-0.030897680958360433,-0.002413436083588749
1746521843964054800,4.2880546875,-0.004966682496666908,-0.042704876999557016,-0.04743786033820361
1746521843974044700,4.298044677734375,0.0022241057902574538,-0.045407596619613466,-0.016451825242955236
1746521843984034800,4.308034912109375,-0.004197451689839363,-0.03083820585608482,-0.0008790295905433595
1746521843994025000,4.31802490234375,-0.02586509361863136,-0.02440400809012353,-0.04636491561075672
1746521844004014800,4.328014892578125,-0.07758300589621067,-0.02908303275182843,-0.045544794866908336
1746521844014005000,4.3380048828125,-0.1553068815678358,-0.027145342687517404,-0.05538348558042198
1746521844023995000,4.347994873046875,-0.1727262184023857,-0.029337117110751567,-0.10181501842029392
1746521844033985000,4.357985107421875,-0.1596633232116699,-0.0005027618903666734,-0.09916359059605746
1746521844043975000,4.367974853515625,-0.148465637370944,0.03175725692976266,-0.06815691457157955
1746521844053964800,4.37796484375,-0.13088263440728187,0.04559084423203021,-0.050975295483041555
1746521844063955000,4.387954833984375,-0.08340893557071685,0.043970366890728474,-0.0458402341495268
1746521844073944800,4.39794482421875,-0.037138182783126826,0.024177725053578614,-0.046376496450696136
1746521844083934700,4.407934814453125,0.03323942177891731,0.01000785500165075,-0.06024879006184637
1746521844093925000,4.417925048828125,0.046322190713882445,-0.016713015196099877,-0.08518741648532449
1746521844103915000,4.4279150390625,0.03743921155631542,-0.02123969884030521,-0.08217955817254259
1746521844113905000,4.43790478515625,0.01573065309524536,0.012372940165176987,-0.08113664325717836
1746521844123895000,4.44789501953125,-0.028708208090066908,0.0017779329253360628,-0.11729518561949953
1746521844133885000,4.457885009765625,-0.0737649089127779,-0.0034399478534236547,-0.13375868303393945
1746521844143874800,4.467874755859375,-0.10729425354897976,0.0019948636116459964,-0.11166483331602066
1746521844153865000,4.477864990234375,-0.09441723631918429,-0.010356083917431532,-0.12276614611018448
1746521844163854800,4.487854736328125,-0.05832125606536865,-0.04337335084564983,-0.1524445509392768
1746521844173844700,4.4978447265625,-0.0337409415602684,-0.05382051058001816,-0.12206802604449912
1746521844183835000,4.5078349609375,-0.0880254894554615,-0.029951778410375118,-0.08570274559631944
1746521844193823700,4.51782373046875,-0.12198095054924488,-0.005444784869812429,-0.0859206261307001
1746521844203814000,4.52781396484375,-0.10525018050074576,-0.007893310533091426,-0.12218109449753536
1746521844213803800,4.5378037109375,-0.07540098568201065,-0.01282682141251862,-0.09682599622765556
1746521844223794000,4.5477939453125,-0.019681436547636984,0.017216361608356236,-0.03862929812371731
1746521844233784000,4.5577841796875,0.0003115501672029495,0.021135471280850467,-0.04078165385201573
1746521844243774000,4.56777392578125,-0.007642623707652092,-0.028066987577080725,-0.12433967903722076
1746521844253763800,4.577763916015625,-0.05388824205398559,-0.02181037486772984,-0.13799381811935454
1746521844263754000,4.58775390625,-0.0725578712105751,0.003086969697289169,-0.08783778486363589
1746521844273744000,4.597743896484375,-0.07846797203719616,0.01432761789690703,-0.08050077477274462
1746521844283733800,4.607733642578125,-0.117592360201478,-0.024094686412625015,-0.1394932811631821
1746521844293724000,4.617723876953125,-0.15285422771871088,-0.04536847018562257,-0.12297313992436974
1746521844303713800,4.6277138671875,-0.10450608413517475,-0.037105668753013014,-0.07818166590910404
1746521844313703700,4.63770361328125,-0.0647457361549139,-0.01611227282397449,-0.06494801726136357
1746521844323694000,4.647694091796875,-0.038947278031706806,-0.021434417694807053,-0.05194118137313053
1746521844333684000,4.65768408203125,-0.0020581015735864636,-0.04668495961166918,-0.10070497481916099
1746521844343673900,4.667673828125,-0.015976736810803412,-0.04663589630555361,-0.12315399465030058
1746521844353664000,4.6776640625,-0.06604629735946654,-0.05910995875764638,-0.10976849817540496
1746521844363654000,4.68765380859375,-0.11699848596155643,-0.04922711837515235,-0.13598952909223735
1746521844373643800,4.697643798828125,-0.13639993652403354,-0.008877572330087423,-0.16790091713778674
1746521844383634000,4.707634033203125,-0.09481997190117836,0.00928618966359645,-0.1478343171974644
1746521844393623800,4.717623779296875,-0.06303425606191158,-0.0026837591912597415,-0.15158464617431164
1746521844403613700,4.72761376953125,-0.029327801293134687,-0.01738463084734976,-0.14342106733247637
1746521844413603800,4.737603759765625,0.024604279902577398,-0.024922880865074694,-0.1212566913953051
1746521844423594000,4.747593994140625,0.01992868930697441,-0.024914953286945818,-0.10947194464793428
1746521844433583900,4.757583984375,-0.016110007801651952,-0.016775997429713606,-0.10833119538128376
1746521844443574000,4.767573974609375,-0.03877133694291115,0.00047426644824445245,-0.11081238120514898
1746521844453564000,4.77756396484375,-0.025322072783112524,-0.013797091216780244,-0.088976305640582
1746521844463553800,4.7875537109375,-0.03369768694043159,-0.035095205713436,-0.0843999376357533
1746521844473544000,4.7975439453125,-0.04552431833446026,-0.017287527148425578,-0.10166896101310849
1746521844483533800,4.807533935546875,-0.056934185621142386,-0.013638210860639809,-0.10515238268207758
1746521844493523700,4.817523681640625,-0.05342997689247131,-0.03885459477957338,-0.051143418591562656
1746521844503513900,4.827513916015625,-0.08739420581459999,-0.027822072905302045,-0.03326276612188667
1746521844513502700,4.837502685546875,-0.11720949836373329,-0.01626943614706397,-0.09608533392818644
1746521844523493600,4.84749365234375,-0.12294424262344837,-0.02072305455505848,-0.11597968257414176
1746521844533483500,4.8574833984375,-0.08078735489547252,-0.019841047556139527,-0.14675406594639642
1746521844543473400,4.867473388671875,-0.05269757096469402,-0.04891092856545001,-0.1616077900766395
1746521844553463600,4.877463623046875,-0.022941315126419067,-0.06780545251909643,-0.1580159943960607
1746521844563453400,4.887453369140625,-0.009918167424201966,-0.07079973896425217,-0.14711908160019666
1746521844573443300,4.897443359375,-0.022602292430400846,-0.0551716329280287,-0.14096746363528073
1746521844583433500,4.90743359375,-0.06802607299983501,-0.0361341203071177,-0.11616839181296526
1746521844593423600,4.917423583984375,-0.13380875098705292,-0.026596915024518965,-0.14166585769560186
1746521844603413500,4.92741357421875,-0.18046470369994638,-0.010677315228432417,-0.1510724771347828
1746521844613403600,4.937403564453125,-0.19664719221591948,0.003487074930779636,-0.15066623442145063
1746521844623393500,4.9473935546875,-0.15363982513844965,0.010666866899654268,-0.137122003720887
1746521844633383400,4.957383544921875,-0.09571195230484009,0.02040010621100664,-0.12309188919952138
1746521844643373600,4.96737353515625,-0.07041559848487376,0.006392185255140066,-0.13043306400887666
1746521844653363500,4.977363525390625,-0.023995208093523977,-0.0306760375643149,-0.13361048846859483
1746521844663353300,4.987353271484375,0.03982815251946449,-0.043096031741611654,-0.10408882683748379
1746521844673343500,4.997343505859375,0.0832154588252306,-0.025571590564772484,-0.09435746895596385
1746521844683333400,5.00733349609375,0.07980594264268874,-0.0043219183197245,-0.07456727480422705
1746521844693323500,5.017323486328125,0.04767828149795532,-0.01658040179237723,-0.03256283769160509
1746521844703313700,5.027313720703125,-0.02169336089193821,-0.014276106905378401,-0.048681229729112235
1746521844713303600,5.037303466796875,-0.07127426114082336,-0.002577120479010045,-0.05053827403895557
1746521844723293400,5.04729345703125,-0.10301438427269458,0.006145772746019065,-0.04126224044319242
1746521844733283600,5.05728369140625,-0.13910685739517212,-0.012974778515845536,-0.06223095858870074
1746521844743273500,5.0672734375,-0.15505670619904993,-0.017005714532360435,-0.06075573493698611
1746521844753263400,5.077263427734375,-0.16092472144961356,-0.026105112919583916,-0.05430456776991486
1746521844763253500,5.08725341796875,-0.18814415228664874,-0.00447772993594408,-0.04363841325631365
1746521844773243400,5.097243408203125,-0.16813596800267697,-0.02756692910045385,-0.056460229700151826
1746521844783233300,5.1072333984375,-0.10397241564989089,-0.06466613158006221,-0.10097027469184248
1746521844793223700,5.1172236328125,-0.033599487262964245,-0.08893062160164117,-0.12600439737904817
1746521844803213600,5.127213623046875,-0.02313946804702282,-0.09224847744535654,-0.10561274846913292
1746521844813203500,5.137203369140625,-0.013383797708153724,-0.06134071348439902,-0.07189723361106588
1746521844823193600,5.147193603515625,-0.054791328373551364,-0.011726641618274152,-0.04862343512726947
1746521844833183500,5.15718359375,-0.07287877372801303,0.010802110651880503,-0.018556816431879997
1746521844843172600,5.167172607421875,-0.07889175040721892,0.02693867766689509,-0.03461405286667868
1746521844853162500,5.17716259765625,-0.049341830796003336,0.026039171543903648,-0.04670231260526925
1746521844863152400,5.18715234375,0.0019008651852607725,0.02596541218794882,-0.06471124936342239
1746521844873142500,5.197142578125,-0.008346388062834739,0.0075852674972265955,-0.0925054113484919
1746521844883132400,5.20713232421875,-0.02588262927532196,0.0045870720619335765,-0.07525785088427364
1746521844893122600,5.21712255859375,-0.022862404671311377,-0.007816884296014905,-0.09950648574959486
1746521844903112400,5.227112548828125,-0.03701543318629265,-0.021081914462707935,-0.08551754348883404
1746521844913102300,5.237102294921875,-0.06582359451949596,-0.018515424975566564,-0.07636044183131308
1746521844923092500,5.247092529296875,-0.07519289588928223,-0.016980689688958227,-0.09552565421881154
1746521844933082600,5.25708251953125,-0.06557575723826885,-0.03534669625647366,-0.0801148624613881
1746521844943072500,5.267072509765625,-0.08184124786257743,-0.0245631076419726,-0.045728261675033716
1746521844953062700,5.277062744140625,-0.09167699770033359,-0.010971110543236136,-0.05638544743089005
1746521844963052500,5.287052490234375,-0.10634382095634937,-0.02760788216535002,-0.0776621720796451
1746521844973042400,5.29704248046875,-0.1116273143172264,-0.013393551917187869,-0.07183795943818987
1746521844983032600,5.307032470703125,-0.08997662352323532,-0.001593114410340786,-0.08687171631045638
1746521844993022500,5.3170224609375,-0.0683013828098774,-0.021971958637610076,-0.10612530110115184
1746521845003012400,5.327012451171875,-0.024904724153876304,-0.05803615551367402,-0.09008424861617385
1746521845013002500,5.33700244140625,-0.0025748189240694043,-0.023036372998729345,-0.08913746928535402
1746521845022992600,5.34699267578125,0.006906126126646995,0.003935732013732195,-0.08461297759823501
1746521845032982500,5.356982421875,-0.03147942636907101,-0.0002494447164237499,-0.0911930135756731
1746521845042972700,5.36697265625,-0.045156654065847394,-0.017894662728719413,-0.10366176053183153
1746521845052962600,5.376962646484375,-0.03455401150882244,-0.027279088602401316,-0.09436484854482113
1746521845062952400,5.386952392578125,-0.038733927541971205,-0.02602967306319624,-0.06554075899012386
1746521845072942600,5.396942626953125,-0.05232581504285335,-0.03656706836428493,-0.07105851776460186
1746521845082932500,5.406932373046875,-0.0729541770517826,-0.040728133566491305,-0.0889895121820271
1746521845092922400,5.41692236328125,-0.10467325739562511,-0.02829743533208966,-0.08578010341515764
1746521845102912500,5.42691259765625,-0.08048340351283549,0.0013118497835472225,-0.06372379096234217
1746521845112902400,5.43690234375,-0.08479717505872249,0.02563267310224473,-0.042374275072012094
1746521845122892500,5.446892578125,-0.14168693701624868,0.014653488850407301,-0.07021324431318789
1746521845132882700,5.456882568359375,-0.16881927409172057,0.0019228578213602303,-0.12565682605039327
1746521845142872600,5.46687255859375,-0.14358897124528883,-0.03458316453807056,-0.1276084167758934
1746521845152862500,5.476862548828125,-0.08272972113490104,-0.029498773945868015,-0.11721072220643981
1746521845162852600,5.4868525390625,-0.02035480576455593,-0.008485358142107725,-0.06790655653970315
1746521845172842500,5.496842529296875,-0.03682546357214451,0.003958601432666182,-0.08355175984119996
1746521845182831600,5.50683154296875,-0.05103928236365318,0.03637487026043236,-0.05929002803228795
1746521845192821500,5.516821533203125,-0.043078678748011585,0.02103529884200543,-0.051867403750866646
1746521845202811400,5.526811279296875,-0.05305471383929252,-0.007450133342854678,-0.08396267872964963
1746521845212801500,5.536801513671875,-0.06902385186553,-0.007691212089732289,-0.1012278479157947
1746521845222791400,5.54679150390625,-0.06631225481927394,-0.016624642792902884,-0.09154557160669938
1746521845232781300,5.55678125,-0.044917000091075895,-0.017608721926808357,-0.08085709566343575
1746521845242771700,5.566771728515625,-0.01437690039873123,-0.0018162191091105342,-0.07816871509598568
1746521845252761600,5.57676171875,-0.04006254579722881,-0.00356116308029741,-0.10511957639101892
1746521845262751500,5.58675146484375,-0.08545826931595801,-0.016853958036750553,-0.09961398297837004
1746521845272741600,5.59674169921875,-0.1516331614911556,-0.011563560011051594,-0.09529396435478701
1746521845282731500,5.6067314453125,-0.14479893155694007,0.0019671718871220947,-0.06425515789268538
1746521845292721400,5.616721435546875,-0.09907996743321418,-0.005302928713709115,-0.015430921229999511
1746521845302711600,5.626711669921875,-0.05500818599462509,0.025990692759677768,0.015663049485441297
1746521845312701400,5.636701416015625,-0.029180501776933668,0.03746931443363428,0.020378551966324446
1746521845322691300,5.64669140625,-0.04330313515365124,0.023559154763817786,0.007156739886850118
1746521845332681500,5.656681396484375,-0.10232581748664378,-0.040465865901112556,-0.08509371031988412
1746521845342671400,5.66667138671875,-0.14833178185820578,-0.11026366128120571,-0.11779493356887251
1746521845352661500,5.67666162109375,-0.1518424203276634,-0.13331150552202015,-0.10004910472631454
1746521845362651600,5.686651611328125,-0.11853519400954246,-0.09659377664066851,-0.013853990769479423
1746521845372641500,5.6966416015625,-0.08560147717893123,-0.07212590953409671,0.01261005512299016
1746521845382631400,5.70663134765625,-0.024604864424467087,-0.007607479329034685,-0.007571713895909488
1746521845392621600,5.71662158203125,0.010683306577801704,0.025148908173292874,0.05371226443257183
1746521845402611500,5.726611572265625,-0.028852584996819496,0.030110877962224183,0.0499613144012168
1746521845412601300,5.736601318359375,-0.12930091817378997,0.04340714351739734,-0.0035336540188640356
1746521845422591500,5.746591552734375,-0.15585457857847212,0.0432542910432443,-0.01701110309353098
1746521845432581400,5.756581298828125,-0.14759586879909037,0.03845255331732333,-0.03525154705261811
1746521845442571500,5.766571533203125,-0.112319972756505,-0.00008314823880791664,-0.018456406531017273
1746521845452561700,5.776561767578125,-0.04793313304185867,-0.03624996523912996,0.016359397719148544
1746521845462551600,5.786551513671875,0.011902034717798233,-0.04608458256572485,0.03973976184995845
1746521845472541700,5.796541748046875,-0.024963760864734647,-0.05236928885839879,0.0040873423788696525
1746521845482531600,5.806531494140625,-0.061413376861810684,-0.07698617251422256,-0.03597534954883158
1746521845492521500,5.816521484375,-0.0012380173623561857,-0.04826740649752319,-0.017418533116951584
1746521845502511600,5.82651171875,0.049478024396300314,0.01243183074556291,0.01331146312430501
1746521845512500500,5.83650048828125,0.09614859015643597,0.059230443332158024,0.10072101263850927
1746521845522489600,5.846489501953125,0.09182488173842429,0.06235624720249325,0.10602125620478764
1746521845532479500,5.8564794921875,0.08533785780668258,0.013958455790951847,0.05713023791620508
1746521845542469400,5.866469482421875,0.0222340436398983,-0.019358342073112725,0.004334156746789813
1746521845552459500,5.87645947265625,-0.1296837800115347,-0.07518445685449987,-0.06863808568464591
1746521845562449400,5.886449462890625,-0.2174070716500282,-0.051068143131956456,-0.13395827899295837
1746521845572439600,5.896439453125,-0.3101116588324308,0.01669825601838529,-0.1310162889906205
1746521845582429400,5.906429443359375,-0.26645371889173985,0.04420658679939806,-0.12110425904626027
1746521845592419300,5.91641943359375,-0.15108195734918117,0.05926237284038215,-0.08816445953473448
1746521845602409500,5.926409423828125,-0.04805588263869285,0.07875004038158803,-0.03390183121040463
1746521845612399600,5.936399658203125,0.028674890342354774,0.08224756364114583,0.0196454336524941
1746521845622389500,5.946389404296875,0.027180852392315862,0.08933635285831987,0.03650140098324045
1746521845632379600,5.956379638671875,0.00032031799554824825,-0.031059301260858773,-0.031623145688697694
1746521845642369500,5.96636962890625,0.08980009791254996,-0.14045388808995485,-0.12318912076260893
1746521845652359400,5.976359375,0.13584171811938284,-0.1577816376509145,-0.13893864295510575
1746521845662349600,5.986349609375,0.09363105437755584,-0.14299652177747338,-0.11414402811219915
1746521845672339500,5.99633935546875,0.09621113399863243,-0.05656546190660446,-0.09035641662105917
1746521845682329300,6.006329345703125,0.08843640834391117,0.0396580931821838,-0.04181832168968394
1746521845692319500,6.016319580078125,0.058785366445779794,0.04553827379457652,-0.03437648125113919
1746521845702309400,6.026309326171875,-0.009033785805106163,0.01696275217346847,-0.08489603232331573
1746521845712299300,6.03629931640625,-0.09462766419947147,0.009084639209508895,-0.13037788148922844
1746521845722289700,6.04628955078125,-0.21205460470616816,-0.025612360966578124,-0.1672141769826412
1746521845732279600,6.056279541015625,-0.3158504947453737,-0.05799947676509618,-0.16575499115027487
1746521845742269400,6.06626953125,-0.35398996352553364,-0.0806231773097068,-0.1820086452063173
1746521845752259600,6.076259521484375,-0.32278584696650503,0.012867555281706154,-0.12132445940189063
1746521845762249500,6.08624951171875,-0.2840805609971285,0.10732344311084598,-0.0480423473036848
1746521845772239400,6.0962392578125,-0.2676788767725229,0.14901581859961152,-0.02473714903462678
1746521845782229500,6.1062294921875,-0.2408089900255203,0.10273202366735786,-0.05332569453408941
1746521845792219400,6.116219482421875,-0.16916121939718723,-0.010671543074771762,-0.10780077829901129
1746521845802209300,6.126209228515625,-0.085751114782691,-0.07082768641710281,-0.10674125930871814
1746521845812199400,6.136199462890625,0.04823123920559883,-0.06366528397444635,-0.09900471023991704
1746521845822189600,6.146189453125,0.18242343655228613,-0.045032443164289,-0.0246117325566709
1746521845832179500,6.156179443359375,0.1905991442233324,-0.021187238000705835,0.014402199236769228
1746521845842169600,6.166169677734375,0.1449064835846424,-0.052499527641944585,-0.06399241530327127
1746521845852158500,6.176158447265625,0.08778466643691063,-0.06717928344476967,-0.13256682463455943
1746521845862148600,6.186148681640625,0.11869126135408878,-0.015157054458372295,-0.09950416592834517
1746521845872138500,6.196138427734375,0.09768003750741482,0.02849672076385468,-0.022714429301675408
1746521845882128400,6.20612841796875,-0.04346329415142536,0.01085164888203144,-0.06761542810602113
1746521845892118500,6.216118408203125,-0.23637129983901975,-0.037664983136206864,-0.14882478953953832
1746521845902108400,6.2261083984375,-0.3175362558752298,0.004617942124232649,-0.15384111986421048
1746521845912098300,6.236098388671875,-0.27892332436442374,0.11276216356605291,-0.11122032268522307
1746521845922088400,6.24608837890625,-0.23772563705742358,0.13895941174849866,-0.06619262876128777
1746521845932078300,6.256078369140625,-0.18450141187012195,0.10479531287271529,-0.10343087438540532
1746521845942068500,6.266068359375,-0.11350830575823784,0.021234876534715293,-0.16461667130272833
1746521845952058600,6.27605859375,-0.05940262156128883,-0.039212760567478834,-0.1385580644059926
1746521845962048500,6.286048583984375,0.0028308395117521284,-0.054053515618294475,-0.12345137016167863
1746521845972038400,6.296038330078125,0.07873392949700356,-0.06352561977542936,-0.11241691205864772
1746521845982028500,6.306028564453125,0.11262275509536265,-0.08385119944550097,-0.09158002186557278
1746521845992018400,6.316018310546875,0.10780863281190395,-0.028988961260206995,-0.06528908578399568
1746521846002008300,6.32600830078125,0.09616554129123688,0.010957155083119868,-0.09077491602776572
1746521846011998500,6.33599853515625,0.05822013377845287,-0.00002871463783085346,-0.14187164593338966
1746521846021988400,6.34598828125,0.021958149307966232,-0.023151085419580338,-0.13759380421740933
1746521846031978500,6.355978515625,-0.037303602477908135,0.00860832693465054,-0.09906365561923011
1746521846041968600,6.36596875,-0.05645312410593033,0.06430445866081863,-0.10171654474819078
1746521846051958500,6.37595849609375,-0.08432195876240729,0.08209792603738605,-0.1625722329283133
1746521846061948400,6.385948486328125,-0.09610416649281978,0.07281221129782497,-0.12476005987375974
1746521846071938600,6.3959384765625,-0.13351824360787867,0.06638064388036727,-0.0635201581490226
1746521846081928400,6.405928466796875,-0.18291618850529193,0.04744640897084027,-0.07318539199177175
1746521846091918600,6.415918701171875,-0.15571896950006484,-0.003032499563694,-0.11189489747853949
1746521846101908500,6.425908447265625,-0.11194178709387778,-0.03975004578195512,-0.11573728865301236
1746521846111898400,6.4358984375,-0.11170622477233409,-0.04868168638683855,-0.03249868641421199
1746521846121888500,6.445888427734375,-0.18727672180235386,-0.06519004585631191,-0.012753189920727163
1746521846131878400,6.45587841796875,-0.2649041513621807,-0.08556388511490076,-0.09035172217963262
1746521846141868300,6.465868408203125,-0.27805998553335665,-0.04887344609927386,-0.1281954046173021
1746521846151858700,6.475858642578125,-0.20109131214320658,0.007234335167706012,-0.10244104136414825
1746521846161848600,6.4858486328125,-0.04211129502058029,0.028185389792360363,-0.06443566555874422
1746521846171837700,6.495837646484375,0.044993572458624835,0.03738083243258297,-0.026931827801000324
1746521846181827600,6.50582763671875,0.08086217369735241,0.03404317590985447,-0.05746080331113189
1746521846191817500,6.5158173828125,0.09382160851359367,-0.031453086351417005,-0.1595194942941889
1746521846201807600,6.5258076171875,0.10387129336297511,-0.06552241961583495,-0.20963660204531623
1746521846211797500,6.535797607421875,0.1716635576069355,-0.05004862735848874,-0.14146989673208443
1746521846221787400,6.545787353515625,0.20514672501385212,0.011962751929089426,-0.03285398439159617
1746521846231777500,6.555777587890625,0.21531331424117087,0.05963507861029357,0.024067177351191637
1746521846241767400,6.565767333984375,0.12038871292173861,0.07281476858109236,0.012691833388619124
1746521846251757300,6.57575732421875,-0.07527589799761772,-0.00451594305448234,-0.07531864116080104
1746521846261747500,6.58574755859375,-0.2098217310875654,-0.059688745026290416,-0.14089417920336125
1746521846271737600,6.595737548828125,-0.2595359023272991,-0.05642514012046158,-0.1112904835782945
1746521846281727500,6.6057275390625,-0.2729571094363928,-0.018954291316866875,-0.07672416057717055
1746521846291717600,6.615717529296875,-0.2519067226231098,0.0038642376800999043,-0.03325078342314809
1746521846301707500,6.62570751953125,-0.24261866979598998,0.012218443723209202,-0.04992125638546422
1746521846311697400,6.635697509765625,-0.2917646857589483,-0.010919709149561821,-0.08644472307004034
1746521846321687600,6.6456875,-0.3047521776258945,-0.022605653431266547,-0.1020065954696387
1746521846331677400,6.655677490234375,-0.26524025144875046,-0.036907661962881685,-0.10306837948225438
1746521846341667300,6.665667236328125,-0.16243395696878432,-0.05056837691627442,-0.07167000072645023
1746521846351657500,6.675657470703125,-0.10215046091973781,-0.05562982502430677,-0.03640468087680638
1746521846361647400,6.6856474609375,-0.017813889110088348,-0.05581285344101488,-0.015661825642734765
1746521846371637500,6.695637451171875,0.04136544508934021,-0.04966105281300842,-0.008886029631178826
1746521846381627600,6.705627685546875,0.08261164771318436,-0.06521090598125011,-0.022771255789138377
1746521846391617500,6.715617431640625,0.11241057364940643,-0.09527710455153136,-0.05873955454267561
1746521846401607400,6.725607421875,0.1088087497651577,-0.08659947524033486,-0.08865450807400048
1746521846411597600,6.73559765625,0.08719605289399623,-0.07446147634219377,-0.08237257826030255
1746521846421587500,6.74558740234375,0.06698328594863415,-0.07472052913717925,-0.059958574943616984
1746521846431577300,6.755577392578125,0.019980711755156515,-0.030797983443550763,-0.0625877726697363
1746521846441567500,6.7655673828125,0.0009282207608222961,-0.0031094737900421022,-0.03883764364477247
1746521846451557400,6.775557373046875,-0.09206804284453392,-0.00540584109891206,-0.01712733161803335
1746521846461547300,6.78554736328125,-0.18372516680061815,-0.016304032536409795,-0.06627194107519463
1746521846471537400,6.795537353515625,-0.25866262662410733,-0.04540675636939704,-0.1047328968946822
1746521846481527600,6.805527587890625,-0.26871289599537845,-0.028078203090839086,-0.07422648027623072
1746521846491516400,6.815516357421875,-0.22107143937647342,0.008986549129895865,-0.0723141255825758
1746521846501506600,6.825506591796875,-0.1755932982712984,0.0002691723302006721,-0.08302910594027489
1746521846511496400,6.835496337890625,-0.07030220123827458,-0.04094930203650146,-0.08275326640726997
1746521846521486800,6.84548681640625,0.021228665989637373,-0.06091138215642422,-0.0679587616509758
1746521846531476700,6.855476806640625,0.08557575821578502,-0.06186864634864032,-0.06195661689303815
1746521846541466600,6.865466552734375,0.07187865677475928,-0.07389160403236747,-0.06091291652638465
1746521846551456800,6.875456787109375,0.039247722283005715,-0.06643463908992707,-0.075217080482468
1746521846561446700,6.88544677734375,0.00786357298195362,-0.05564852972477674,-0.07821839945660904
1746521846571436500,6.8954365234375,-0.07857435502111912,-0.04051781528405845,-0.10586012909263372
1746521846581426700,6.9054267578125,-0.14660919584929943,-0.014148425405099987,-0.07547092737937346
1746521846591416600,6.91541650390625,-0.1694546493858099,0.00350431832652539,-0.0802076005124487
1746521846601406700,6.92540673828125,-0.1746563096821308,-0.014091836379654705,-0.11764116777926682
1746521846611396900,6.93539697265625,-0.1791489449262619,-0.006294277838617563,-0.1308193964453414
1746521846621386800,6.94538671875,-0.14433072952330112,-0.0007172083586454391,-0.0827503620641306
1746521846631376600,6.955376708984375,-0.07708674681186675,-0.0028058512009680268,-0.06390334878033027
1746521846641366800,6.96536669921875,-0.046990883755683895,-0.03486530594769865,-0.06749956490769982
1746521846651356700,6.975356689453125,-0.04204465952515602,-0.04612389166280627,-0.06530404589110984
1746521846661346600,6.9853466796875,-0.011655366480350494,-0.054052054313570255,-0.07816915348740294
1746521846671336700,6.995336669921875,0.029655718073248863,-0.03433350062593817,-0.060974510520510374
1746521846681326600,7.00532666015625,0.010518471404910088,-0.04302398941870778,-0.036713016173616046
1746521846691316500,7.01531640625,-0.029222002831101417,-0.0109573742788285,-0.03639085328085348
1746521846701307000,7.025306884765625,-0.028505378994345663,-0.027141981686651707,-0.05989867971623316
1746521846711296800,7.035296875,-0.0618611206293106,-0.041900647944584486,-0.07771437719091773
1746521846721286700,7.04528662109375,-0.09281564634144306,-0.046808111067302524,-0.06445031513860448
1746521846731276800,7.05527685546875,-0.07814531595408916,-0.0433521619271487,-0.07204804025860503
1746521846741266700,7.0652666015625,-0.08744096756577491,-0.04357749511562287,-0.07321525740707292
1746521846751256800,7.0752568359375,-0.08481354167163371,-0.036480814852938054,-0.03987317897127941
1746521846761246700,7.085246826171875,-0.07848258508443832,-0.034786176296882326,-0.0144523037225008
1746521846771236600,7.095236572265625,-0.07440788299143314,-0.029202348282560704,-0.06094753118203953
1746521846781226800,7.105226806640625,-0.0805137986510992,-0.034364699481800196,-0.07152673806454986
1746521846791216600,7.115216552734375,-0.050691491839289664,-0.048656807673908765,-0.060028863700851795
1746521846801206800,7.125206787109375,-0.008563245683908462,-0.029340478111617264,-0.0723755734462291
1746521846811195600,7.135195556640625,0.02805588166117668,-0.044860885989665984,-0.10769994827304034
1746521846821185800,7.145185791015625,0.05273030419051647,-0.05433507250603288,-0.10146710003176704
1746521846831175700,7.15517578125,0.016847089904546735,-0.05641052707321942,-0.09392726084515451
1746521846841165800,7.165165771484375,-0.06715396634042263,-0.039312640745379025,-0.1210578991538845
1746521846851155700,7.17515576171875,-0.1435211667060852,-0.029374380381219086,-0.15678869935711845
1746521846861145900,7.185145751953125,-0.17745207788050174,-0.00007693769372999668,-0.12026921472791581
1746521846871135700,7.1951357421875,-0.1341138714134693,0.06065762659106403,-0.10197409970583393
1746521846881125600,7.205125732421875,-0.09263795168697833,0.08229275448974221,-0.08887370378263294
1746521846891115800,7.21511572265625,-0.08529869484007357,0.06761705380752682,-0.07383698776829987
1746521846901105700,7.225105712890625,-0.09260346489548682,0.024255101138725876,-0.12651340634711086
1746521846911095600,7.235095458984375,-0.04587210885882377,-0.003240772019512951,-0.1429462711612694
1746521846921086000,7.2450859375,0.048451019436120984,-0.001946530957892537,-0.08588526255637406
1746521846931075800,7.255075927734375,0.09134440474510193,-0.010988573134690522,-0.049132590225804594
1746521846941065700,7.265065673828125,0.055741176444292065,-0.025825419195368883,-0.06895246712975203
1746521846951056000,7.275055908203125,-0.022940146082639692,-0.04467270647380501,-0.10225227732639759
1746521846961045800,7.285045654296875,-0.08817512705922126,-0.024290062854252753,-0.08999286227198317
1746521846971035600,7.29503564453125,-0.1607832671523094,0.006902472864836454,-0.04027012413330376
1746521846981025800,7.30502587890625,-0.21649580202400684,0.030861111807636916,-0.08266584385214373
1746521846991015700,7.315015625,-0.2012812817573547,0.00020180618241429326,-0.1258481839040294
1746521847001005600,7.325005615234375,-0.09868366159200667,-0.03557882451191544,-0.11658742094263434
1746521847010995700,7.33499560546875,0.006167290458083153,-0.042851445863395926,-0.07006135995341464
1746521847020985600,7.344985595703125,0.0736386521846056,-0.019543781642615794,-0.03599785364158451
1746521847030975700,7.354975830078125,0.09340016823112963,-0.030171156782098113,-0.06714623969169334
1746521847040966000,7.3649658203125,0.11933131282329558,-0.03959996978677809,-0.08743652885267511
1746521847050955800,7.374955810546875,0.05953706159591674,-0.014790814961865543,-0.07582615229152143
1746521847060945700,7.384945556640625,-0.03736030110120773,0.04224277591314166,-0.055977706880215555
1746521847070935800,7.394935791015625,-0.12948854970037937,0.07229479982759802,-0.053182267475407566
1746521847080925700,7.40492578125,-0.1604138493180275,0.06736092362198978,-0.07227753816554322
1746521847090915600,7.41491552734375,-0.16498656406104564,0.06543017475511878,-0.08127013344373553
1746521847100905700,7.42490576171875,-0.17405659022331238,0.06237469617463648,-0.07592760337200015
1746521847110895600,7.4348955078125,-0.12406477108597755,0.04941321553178131,-0.07447689310703426
1746521847120884700,7.444884765625,-0.1172001460134983,0.014331453821808098,-0.057098911196179686
1746521847130874600,7.45487451171875,-0.08117080125510692,-0.01098119354583323,-0.05905431958027184
1746521847140864500,7.464864501953125,-0.009370470413565635,-0.035983752050995826,-0.036752197406534105
1746521847150855000,7.47485498046875,0.02997252893745899,-0.02849441920891404,0.012957991777826099
1746521847160844800,7.4848447265625,0.0501888030141592,-0.004750190201774239,0.006338683235924691
1746521847170834700,7.494834716796875,0.03585281914770603,-0.0017895137652754784,0.01888824034333229
1746521847180824800,7.504824951171875,-0.0069207391738891596,-0.025197971479408443,-0.012156466136593371
1746521847190814700,7.514814697265625,-0.04624795643389225,-0.03744008833914995,-0.047917350950837136
1746521847200804600,7.5248046875,-0.08063011850714683,-0.020650245047174394,-0.041287685411702836
1746521847210794800,7.534794677734375,-0.13009937507510186,0.018324797774292526,-0.05478290760507807
1746521847220784600,7.54478466796875,-0.1551490606576204,0.028756869537383316,-0.09452617658637463
1746521847230774500,7.5547744140625,-0.15818915900588035,0.011677907105721532,-0.11575771038653328
1746521847240764700,7.5647646484375,-0.12789163589775562,0.03241992208957672,-0.08545081666186452
1746521847250754800,7.5747548828125,-0.07880641021132469,0.04686491928845644,-0.040229043204244225
1746521847260744700,7.58474462890625,-0.0437011945605278,0.04717661558613181,-0.010867357907816767
1746521847270734800,7.59473486328125,-0.06233984405696392,0.019778795974887905,-0.009208155991323292
1746521847280724700,7.604724853515625,-0.053740942537784574,-0.024713293235003948,-0.04931726261032745
1746521847290714600,7.614714599609375,-0.03360767056941986,-0.029350414983741937,-0.02458396776691079
1746521847300704800,7.624704833984375,-0.05116670813560485,-0.018865005598217247,0.005325816398952156
1746521847310694700,7.634694580078125,-0.07436112124025822,-0.01534706060513854,-0.030272735726740208
1746521847320684500,7.6446845703125,-0.10917699855566024,-0.005628836199827492,-0.07453132670801133
1746521847330674700,7.6546748046875,-0.1433902338027954,-0.0006063683953136205,-0.07156840351549908
1746521847340664600,7.66466455078125,-0.1508586699873209,0.005261208463832736,-0.06923625250719487
1746521847350654700,7.67465478515625,-0.1740992603212595,0.009822598095238208,-0.07858162501212208
1746521847360644900,7.684644775390625,-0.19574585946202278,0.016884280109778046,-0.06984874011604116
1746521847370634800,7.694634765625,-0.191095987829566,0.007483414557948708,-0.06810184164978564
1746521847380625000,7.704625,-0.1553413683593273,-0.006683131025731563,-0.06058028703853487
1746521847390614800,7.71461474609375,-0.11330664570629596,-0.016483480756543576,-0.053507389510236675
1746521847400604700,7.724604736328125,-0.07979600577056407,-0.003953998322784901,-0.04161154707120731
1746521847410593800,7.73459375,-0.10342121150791644,-0.009921418827213346,-0.06273267929945141
1746521847420584700,7.744584716796875,-0.06522738219201564,-0.0069732730787247415,-0.05994160554250702
1746521847430573800,7.75457373046875,-0.015350129345059393,0.002382145896181464,-0.05551648257663473
1746521847440563700,7.764563720703125,0.010744681376218795,0.0005426555093377828,-0.049824170952849085
1746521847450553600,7.7745537109375,0.026094226199388504,-0.008144728010892867,-0.05385611161636188
1746521847460543700,7.784543701171875,0.015591536885499952,-0.0220619019433856,-0.05005288340849801
1746521847470533600,7.79453369140625,0.037435704424977304,-0.019707484304346143,-0.05676430894695222
1746521847480523800,7.804523681640625,0.013213701838254929,-0.00288910903763026,-0.03717396648256108
1746521847490514000,7.814513916015625,-0.05902443589866161,0.015985139312967658,-0.02776519161891192
1746521847500503800,7.82450390625,-0.15267770210802553,0.010703034191578626,-0.058625883301440626
1746521847510493700,7.83449365234375,-0.1877104370445013,0.028001046201400457,-0.0377597487475723
1746521847520483800,7.84448388671875,-0.15995324606895445,0.018872604382783174,-0.02479594828346744
1746521847530474500,7.854474609375,-0.15037117873132227,0.013822883245162666,-0.04453275001384318
1746521847540464400,7.86446435546875,-0.15474983220696448,0.012581139555759728,-0.048443986907135694
1746521847550454500,7.87445458984375,-0.1411860017567873,-0.013104067451320587,-0.09482835613703354
1746521847560444700,7.884444580078125,-0.08077157280445098,-0.026821773288957775,-0.0991469317222014
1746521847570434600,7.8944345703125,0.005257189875841141,-0.032929332916438576,-0.06560293750613927
1746521847580424400,7.904424560546875,0.0250268892288208,-0.03473915881738066,-0.08404569910429417
1746521847590414600,7.91441455078125,0.015652911683917043,-0.02578446613047272,-0.10823367155725136
1746521847600404500,7.924404541015625,0.0003197334736585617,-0.013132051436789333,-0.10064465946666895
1746521847610394400,7.934394287109375,-0.00887830298244953,0.0104220252931118,-0.06319043300431221
1746521847620384500,7.944384521484375,-0.015415011274814604,0.018371851786412298,-0.05619534995257854
1746521847630374400,7.95437451171875,-0.028691841477155682,0.04597202556934207,-0.08548172325678169
1746521847640364300,7.9643642578125,-0.05453530778586864,0.03250924434084445,-0.11496581109017133
1746521847650354700,7.974354736328125,-0.0465723660826683,0.011657412306964397,-0.11499417866813018
1746521847660344600,7.984344482421875,0.0031470658540725706,0.009853650820627807,-0.09019547217199578
1746521847670334500,7.99433447265625,0.05008768072724342,0.012063033965788781,-0.07489402254056185
1746521847680324600,8.00432470703125,0.00703705902993679,-0.00923237711712718,-0.11321659280266612
1746521847690314500,8.014314453125,-0.029215573090314865,-0.024260763694532214,-0.09417009315770118
1746521847700304400,8.024304443359375,-0.06306172859072685,-0.022377543763816354,-0.051287484971061344
1746521847710294500,8.03429443359375,-0.11399228988289832,0.0023673501858487724,-0.05790611765952781
1746521847720283400,8.044283447265625,-0.17441431761980056,-0.0012490502130240201,-0.08821125781852751
1746521847730273500,8.0542734375,-0.2316203059196472,-0.01976896870061755,-0.0951656252673827
1746521847740263400,8.064263427734375,-0.2539285838395357,-0.008409297231212257,-0.1041102166853845
1746521847750253300,8.07425341796875,-0.17040215936899183,0.0038118499057367443,-0.09222885942943394
1746521847760243500,8.084243408203125,-0.06580547434091567,-0.005604834269732237,-0.10741868364624678
1746521847770233300,8.0942333984375,0.013700608572363852,-0.030560156099684533,-0.14477726771440355
1746521847780223500,8.104223388671874,0.10555588544905185,-0.06713705173823982,-0.17685929961912333
1746521847790213600,8.114213623046876,0.17207856814861297,-0.06826802852954715,-0.16349932117797433
1746521847800203500,8.12420361328125,0.21149872438907621,-0.05397924480568617,-0.1383155243543908
1746521847810193700,8.134193603515625,0.21647709732353687,-0.044469986975938076,-0.1292159798366949
1746521847820183600,8.14418359375,0.12038695935606956,0.010640526882000267,-0.12358476901669055
1746521847830173400,8.15417333984375,-0.04062602489888668,0.03441504142954945,-0.1498631196113303
1746521847840163600,8.16416357421875,-0.1729448295891285,0.051899735117889936,-0.13552319022212178
1746521847850153500,8.174153564453125,-0.2514706692934036,0.05771313410438597,-0.08574961694534868
1746521847860143400,8.184143310546874,-0.29716040732264515,0.05677037336155772,-0.06416530591845512
1746521847870133500,8.194133544921876,-0.3219944043278694,0.03877122734505683,-0.08920037845373154
1746521847880123600,8.20412353515625,-0.3448211531639099,0.05404960662815719,-0.08519640350937843
1746521847890113500,8.214113525390625,-0.33421734156310556,0.026455095401033756,-0.0497790166368708
1746521847900103700,8.224103759765624,-0.23343992256224155,-0.0347927521681413,-0.05599515120536089
1746521847910093600,8.234093505859375,-0.09947744231820106,-0.05131901262048632,-0.043961471198219804
1746521847920083500,8.24408349609375,0.0412350967079401,-0.06132781747020781,0.02194390158690512
1746521847930073600,8.254073486328124,0.12752806328237057,-0.07820789632890374,0.03848775249486789
1746521847940063500,8.2640634765625,0.16120821456611156,-0.09445628968793898,0.010148505581356585
1746521847950053400,8.274053466796875,0.1537953079611063,-0.06845752321965992,0.008615085469000042
1746521847960043500,8.28404345703125,0.11757891619801521,-0.017799239530228078,-0.0008405790099874138
1746521847970033400,8.294033447265624,0.06033961015045643,-0.000034779052436351776,-0.058781713183969256
1746521847980023600,8.3040234375,-0.02736146965622902,0.008680771116353571,-0.06498608424942941
1746521847990013700,8.314013671875,-0.10081190579235554,0.015865568053908645,-0.07314685007967055
1746521848000003600,8.324003662109375,-0.1060503909677267,0.02628876239079982,-0.06555460485238582
1746521848009993500,8.333993408203124,-0.14861410593092442,0.015667561263777316,-0.07668843167666345
1746521848019982600,8.343982666015625,-0.15265432123243808,0.025183468030020594,-0.02771057535484433
1746521848029972500,8.353972412109375,-0.1398357561916113,0.037338162334635855,0.02212050026282668
1746521848039962600,8.363962646484374,-0.12582476649582386,0.003879654444940388,-0.0017594108879566191
1746521848049952500,8.373952392578126,-0.130201666405797,-0.027048129390738904,0.015117233904637395
1746521848059942400,8.3839423828125,-0.12485036850571632,-0.03523110705278814,0.021887750952877105
1746521848069932500,8.3939326171875,-0.09784837981164454,-0.03189761524852365,0.007021203873679042
1746521848079922400,8.40392236328125,-0.04442249457240104,-0.00729892483651638,-0.004677198030799627
1746521848089912300,8.413912353515625,0.034871991416811944,0.020575718506239352,-0.015996647087670863
1746521848099902500,8.42390234375,0.036114100432395935,0.004048289010114968,-0.0293805543936789
1746521848109892600,8.433892578125,0.01666004289984703,-0.005640818898566067,-0.04445069775357842
1746521848119882500,8.443882568359374,-0.0010614917516708372,-0.015185805628821252,-0.0673829345243983
1746521848129872600,8.45387255859375,0.00267827929854393,-0.0029286007978022097,-0.08883021170077846
1746521848139862500,8.463862548828125,-0.009115618869662284,0.013292941086925565,-0.07954667065199464
1746521848149852400,8.473852294921874,-0.053532268223166465,0.019707886163145304,-0.07241512000532821
1746521848159842600,8.483842529296876,-0.08014964151382446,0.0160097257649526,-0.0873076052433811
1746521848169832400,8.49383251953125,-0.1024602575212717,-0.014255319845676422,-0.08391135040121153
1746521848179822300,8.503822265625,-0.08679916253089905,-0.03042370677106082,-0.06630602600788697
1746521848189812500,8.5138125,-0.10559563293755053,-0.052395080886781215,-0.07370426476672291
1746521848199802400,8.52380224609375,-0.09540683187842368,-0.061377830624394114,-0.0630242461245507
1746521848209792500,8.53379248046875,-0.09345452876687049,-0.06696783265117555,-0.03206719966176897
1746521848219782700,8.54378271484375,-0.07175006195902824,-0.07991930335666984,-0.010921006057504564
1746521848229772500,8.5537724609375,-0.06473638380467892,-0.08504249158930033,-0.010755147971305995
1746521848239762400,8.563762451171876,-0.04337035517096519,-0.07007931573521345,0.022199282853771
1746521848249752600,8.573752685546875,-0.013899930536746978,-0.05453779200389981,0.026433267161715773
1746521848259742500,8.583742431640625,0.008614099088311195,-0.05435892830565572,0.011464465284440666
1746521848269732400,8.593732421875,0.010698504146933555,-0.05961779868192971,-0.021354922717809675
1746521848279722500,8.603722412109375,-0.011740122154355048,-0.040160343615896994,0.0050342678401619195
1746521848289712400,8.61371240234375,-0.01577156962752342,0.005018522281758487,0.019475136853195726
1746521848299702500,8.62370263671875,-0.023405425506830214,0.013328158530779182,-0.00034168957713991404
1746521848309691400,8.63369140625,-0.07131926932632923,-0.0018670725135132669,-0.008782240463141352
1746521848319681300,8.643681396484375,-0.0861994430720806,0.008390592530742287,-0.023784140892419963
1746521848329671700,8.653671630859375,-0.10813888767957687,-0.01030132152289152,-0.021452008150424806
1746521848339661600,8.66366162109375,-0.13039222054183483,-0.027259105260297654,-0.032644232364743946
1746521848349651500,8.6736513671875,-0.10731938799023627,-0.05538169548213481,-0.05700763444984332
1746521848359641600,8.6836416015625,-0.07124328148066997,-0.06425861022509634,-0.06841390327364207
1746521848369631500,8.693631591796875,-0.04638005838096142,-0.0648112391391769,-0.05004775057565421
1746521848379621600,8.70362158203125,-0.09870821151137352,-0.04107683740630746,-0.08986912629446014
1746521848389611500,8.713611572265625,-0.14250994383692742,-0.03010821108110249,-0.13825378422979265
1746521848399601400,8.723601318359375,-0.13699731789529324,-0.020766637968458235,-0.12012573287030681
1746521848409591600,8.733591552734374,-0.08038286574780941,0.013664989269711077,-0.08631733383070676
1746521848419581400,8.74358154296875,-0.007027122157812118,0.040260735250450666,-0.08362851487183943
1746521848429571300,8.7535712890625,0.0371960504502058,-0.0054073389362543816,-0.09165991870136932
1746521848439561700,8.763561767578125,0.05457096362113952,-0.029416685152985154,-0.10228961366210132
1746521848449551600,8.773551513671874,0.014855039304494857,-0.045573272042721505,-0.11435978975472971
1746521848459541500,8.78354150390625,-0.012542670708894728,-0.03346497416310012,-0.09693011418925598
1746521848469531600,8.79353173828125,-0.01703296786546707,-0.023762933707609773,-0.07601164665995165
1746521848479521500,8.803521484375,-0.08259761918783187,-0.007290193540789186,-0.08493017205493524
1746521848489511400,8.813511474609374,-0.1565928297251463,0.0060463674921542405,-0.09513568678684532
1746521848499501600,8.82350146484375,-0.22663667228817938,-0.005709938612021506,-0.10284030634742229
1746521848509491500,8.833491455078125,-0.2543997084826231,-0.010607793656177818,-0.1153278310692869
1746521848519481300,8.8434814453125,-0.2656061621516943,-0.024200156081095336,-0.12829574145292863
1746521848529471000,8.853470947265626,-0.17253683331012726,-0.030803755597211418,-0.13769067045431582
1746521848539460900,8.8634609375,-0.07259878774285317,-0.04729450634475797,-0.13784494770057498
1746521848549450800,8.87345068359375,0.04231646220386028,-0.061301258256845174,-0.1159616719934158
1746521848559441000,8.88344091796875,0.11463000326454639,-0.05600388250108808,-0.10259016751125455
1746521848569430800,8.8934306640625,0.1470546015292406,-0.04406893189437687,-0.12666304395087064
1746521848579421000,8.9034208984375,0.11728139455616474,-0.03676014325097203,-0.1267021338522434
1746521848589410800,8.913410888671875,0.062386021286249156,-0.018979498823359607,-0.08531721687745303
1746521848599401000,8.92340087890625,0.02249240231513977,0.009082154991477727,-0.07543651365311815
1746521848609390800,8.933390869140625,-0.045913609912991524,0.012968531438149512,-0.09250625159870833
1746521848619380000,8.9433798828125,-0.12264321385025978,0.0007289353290572762,-0.09510666162176057
1746521848629369900,8.953369873046874,-0.14069149623811245,0.012480820986442267,-0.09849913533795625
1746521848639360000,8.963360107421876,-0.2109942819982767,0.02175130162425339,-0.07887012309730053
1746521848649350000,8.973349853515625,-0.27332302013933657,0.024141265500709413,-0.08355499297790228
1746521848659340000,8.983340087890625,-0.2385182487398386,0.01227905133664608,-0.10526364277051761
1746521848669330000,8.993329833984374,-0.16429799727499483,-0.0073200406897813075,-0.09377570527894422
1746521848679319800,9.00331982421875,-0.05152034387886524,-0.025437515856325626,-0.02507394324094057
1746521848689310000,9.01331005859375,-0.007545008552074432,-0.03872837458401918,0.00048758258754387496
1746521848699299800,9.0232998046875,-0.004956745624542236,-0.05039221663177013,-0.010797763270325958
1746521848709289700,9.033289794921876,-0.003969488152861595,-0.07981299343798309,-0.04748611992672085
1746521848719279900,9.04327978515625,-0.0014735796838998795,-0.10531177449487149,-0.0770121472056955
1746521848729270000,9.05327001953125,-0.016789806759357453,-0.07245883128289132,-0.06521602054778486
1746521848739260000,9.063260009765624,-0.010268296036124228,-0.042555202863179147,-0.03839885036870837
1746521848749250000,9.07325,-0.0074503160059452055,-0.028865261815302072,-0.03282011865461245
1746521848759240000,9.083239990234375,-0.03494096499979496,-0.02502641430478543,-0.07276586967175826
1746521848769229800,9.093229736328125,-0.0899123261153698,-0.02857859036102891,-0.09628160541895776
1746521848779220000,9.103219970703124,-0.1014841059654951,-0.023242380432225762,-0.061567727173306046
1746521848789209900,9.1132099609375,-0.10276420890390872,-0.023428331458382308,-0.03430166244925931
1746521848799199700,9.12319970703125,-0.10542787515521049,-0.02418331454414874,0.004758062980975955
1746521848809190000,9.13318994140625,-0.0777513482004404,-0.02562617029622197,0.024703137167170642
1746521848819179800,9.1431796875,-0.07883271369636058,-0.035762108656950294,0.007112919011432677
1746521848829170000,9.153169921875,-0.11032149241566658,-0.04240198506284505,-0.01592677845554426
1746521848839160000,9.16316015625,-0.14919453616738318,-0.03612615619637072,-0.04376273375572636
1746521848849150000,9.17314990234375,-0.09127309307456016,-0.02862951683066785,-0.05357356834793463
1746521848859139800,9.183139892578126,-0.006668810239434242,-0.029609285115636885,-0.08320011512562632
1746521848869130000,9.1931298828125,0.035956279522180556,-0.04139620555378496,-0.0953657692156732
1746521848879120000,9.203119873046875,0.04317629390358925,-0.052001843785494564,-0.11910705734705551
1746521848889109800,9.21310986328125,0.04458148452639579,-0.04868413407225162,-0.1664472111981362
1746521848899100000,9.223099853515626,0.047643210184574125,-0.05615962105207145,-0.1559323382561095
1746521848909089800,9.23308984375,-0.0300374108672142,-0.044912031655013555,-0.08533420454487205
1746521848919079700,9.24307958984375,-0.10899755033552647,-0.029838636892102657,-0.09028035571016371
1746521848929068800,9.25306884765625,-0.18990940839350223,-0.0451519413581118,-0.11288456610301509
1746521848939058700,9.26305859375,-0.23064240079820156,-0.02608198777232319,-0.0818784928667359
1746521848949049000,9.273049072265625,-0.2327045940250158,-0.000305558817833662,-0.026545130038354545
1746521848959039000,9.2830390625,-0.18006255263984203,0.00032627281229943037,-0.03208751179743558
1746521848969028900,9.29302880859375,-0.12389350617229938,-0.005392652823776006,-0.05039716680152342
1746521848979019000,9.30301904296875,-0.06596329525113105,0.019678331275098025,-0.009875278130546212
1746521848989009000,9.3130087890625,-0.00008007949888706206,-0.00012541647795587778,0.0034826727502979336
1746521848998998800,9.322998779296874,0.07994330528676509,-0.018338972430117426,-0.007171425999328494
1746521849008989000,9.332989013671876,0.14988368747532366,-0.05164232629071921,-0.02023152644475922
1746521849018978800,9.342978759765625,0.14598901812434195,-0.05126501741092652,-0.012934355173911899
1746521849028968700,9.35296875,0.0969879635900259,-0.031318938577733935,-0.01544913274012506
1746521849038958800,9.362958740234374,0.02782499551475048,-0.016767485329695044,-0.03761703407494351
1746521849048948700,9.37294873046875,-0.0881950008034706,-0.0021135580878704784,-0.03382889383835718
1746521849058939000,9.38293896484375,-0.1691226409524679,0.024093480836227536,-0.008535718356166034
1746521849068929000,9.392928955078125,-0.21228432180881499,0.0384530647739768,-0.02942030188217759
1746521849078919000,9.4029189453125,-0.2030290022075176,0.05382694032080471,-0.030281540087703614
1746521849088908800,9.41290869140625,-0.18041443481743336,0.059431482329592104,-0.029120186424441634
1746521849098899000,9.42289892578125,-0.14222586619853972,0.038497451904974875,-0.03599230068363249
1746521849108888800,9.432888916015624,-0.12323124287128448,0.02028473620302975,-0.03530678437119349
1746521849118878700,9.442878662109376,-0.08783785792887211,0.054623497525975104,-0.009922478273138403
1746521849128868900,9.452868896484375,-0.007532733592391014,0.08131389952022582,0.01733655392192304
1746521849138858800,9.462858642578125,0.05177694898843765,0.07045921843089163,-0.007534633288532495
1746521849148849000,9.472848876953124,0.04568447733223438,0.012529190172813832,-0.07732866580896079
1746521849158839000,9.482839111328126,0.002234627184271812,-0.0036362010778859255,-0.10127181492168456
1746521849168829000,9.492828857421875,-0.021011223846673963,0.013577164855785667,-0.17630016789902
1746521849178818800,9.50281884765625,-0.043459202498197555,0.017347586772590875,-0.2010017706962302
1746521849188809000,9.51280908203125,-0.13246201255321502,0.008451054013706744,-0.25911227008774873
1746521849198798800,9.522798828125,-0.220423204600811,0.01593804876822978,-0.22686792376078663
1746521849208789000,9.5327890625,-0.1934668086141348,0.05043974556792527,-0.17295688535310327
1746521849218779000,9.54277880859375,-0.19284370827972888,0.07559015157856047,-0.11794391358550638
1746521849228768800,9.552768798828126,-0.20018588773608206,0.03303874810766429,-0.12341591525580733
1746521849238759000,9.562759033203125,-0.1710837118923664,0.006265124809369444,-0.038399617553688585
1746521849248748800,9.572748779296875,-0.18578677550554273,0.04171330867893994,0.09128463738188147
1746521849258738000,9.582738037109374,-0.25357728618383407,0.06588858604710549,0.14158117508683352
1746521849268727800,9.592727783203125,-0.26700141590237614,-0.004360971688479185,-0.03268482010345906
1746521849278718000,9.602718017578125,-0.17637538855969906,-0.06820387725215404,-0.09532678891215472
1746521849288708000,9.6127080078125,-0.12869652253985403,-0.05480579529032111,-0.05373146232338622
1746521849298698000,9.622697998046876,-0.07278174309432506,-0.03830090641956776,-0.0005265080921351909
1746521849308688000,9.63268798828125,0.08398468963205814,-0.04080784773919731,0.00465440167710185
1746521849318678000,9.642677978515625,0.17844810318052767,-0.04625409391373396,0.018551884528435765
1746521849328668000,9.65266796875,0.2068687265008688,-0.11444934946801513,0.009904138898849486
1746521849338657800,9.66265771484375,0.2236076798558235,-0.11147205069027841,-0.03015332886446267
1746521849348648000,9.67264794921875,0.2159089420467615,-0.03956478887554258,-0.08907985734660177
1746521849358637800,9.682637939453125,0.2000228061288595,-0.0855041177516803,-0.1491150046577677
1746521849368627700,9.692627685546874,0.15812661516368387,-0.03938800753653049,-0.09238887229673563
1746521849378617900,9.702617919921876,0.054337154865264886,0.0078041709449142216,-0.058449576886463905
1746521849388608000,9.71260791015625,-0.027923195192217826,0.04513513635378331,-0.050047531379945574
1746521849398598000,9.722597900390625,-0.16771335867643355,0.05253697357550263,-0.006755721337907016
1746521849408588000,9.732588134765624,-0.25120938800871373,0.05869114882368594,0.004109444612823427
1746521849418578000,9.742577880859375,-0.30224165610969067,0.05652085557989776,0.04162420562338084
1746521849428567800,9.75256787109375,-0.35639527110159397,0.03423573933988809,0.07407284235078841
1746521849438558000,9.762557861328125,-0.5134662397325038,-0.010860891634412109,0.1990117111238651
1746521849448547800,9.7725478515625,-0.4313391606658697,-0.07093911090232431,0.12507478837873787
1746521849458537700,9.782537841796875,-0.3153711867958307,-0.06887578516434878,-0.06305155425658449
1746521849468527900,9.79252783203125,-0.23598317730426788,0.009065021193586289,-0.11372954729348421
1746521849478517800,9.802517822265624,-0.19595219568908212,0.252646362009272,-0.28624606846794487
1746521849488508000,9.8125078125,-0.15144085378944874,0.1885874025421217,-0.1956691044313833
1746521849498498000,9.822498046875,-0.08580839792788028,0.17962375936377792,0.12683485685382037
1746521849508488000,9.832488037109375,-0.023975334349274634,0.07733432836476713,0.2926388747775927
1746521849518477800,9.842477783203124,0.09731529584825038,-0.1553731152044609,0.07398848853558301
1746521849528467700,9.8524677734375,0.13944997174441814,-0.18961656292676923,0.08375325549636035
1746521849538457600,9.86245751953125,0.11752630922794341,-0.1984876324508339,0.08232994469497353
1746521849548447500,9.872447509765625,0.08762859909236431,-0.21560535599030553,0.017104827525280416
1746521849558438000,9.88243798828125,0.10888532213270663,-0.18250870368294417,-0.057234995198622345
1746521849568427800,9.892427734375,0.19566811805069445,-0.11210165383070707,-0.1327616165542975
1746521849578417700,9.902417724609375,0.23209435317218302,-0.02317592759989202,-0.1729663838338107
1746521849588407800,9.91240771484375,0.1836456718236208,0.010710632976144552,-0.24263799555096774
1746521849598397700,9.922397705078126,0.15783143160939217,0.016152677899599073,-0.29026703107971696
1746521849608386800,9.93238671875,0.15346797570288181,0.028099939998611805,-0.26653880335930735
1746521849618376700,9.942376708984375,0.1680120493620634,0.060708735723793504,-0.24123342598266898
1746521849628366600,9.95236669921875,0.1873614774763584,0.07126118246354163,-0.1678681473793462
1746521849638356700,9.962356689453125,0.14485153852701185,0.09002711160145699,-0.11146923767868429
1746521849648346600,9.9723466796875,0.022135843962430953,0.03689096655640751,-0.11242810930609702
1746521849658336500,9.98233642578125,-0.07266016254127025,-0.03856010534502566,-0.15227675662431864
1746521849668326700,9.99232666015625,-0.1522089155524969,-0.06727711779605597,-0.16565416112430392
1746521849678316800,10.00231689453125,-0.169741649633646,-0.021035591102950273,-0.14025339708179235
1746521849688306700,10.012306640625,-0.14833762707710266,0.025555589278042315,-0.10989146696794777
1746521849698296800,10.022296875,-0.2155734264820814,0.04642104797847569,-0.022289500154182313
1746521849708286700,10.03228662109375,-0.14714812503159044,0.03128130998108536,-0.12786851075049488
1746521849718276900,10.04227685546875,-0.14953706599473954,-0.0006755246413871646,-0.17485183225423095
1746521849728266800,10.052266845703125,-0.1268640464156866,-0.023441337070427833,-0.16224453534390776
1746521849738256600,10.062256591796874,-0.09871990194916724,-0.014321991873718798,-0.13442527545019983
1746521849748246800,10.072246826171876,-0.0620662878125906,-0.0030202976692467924,-0.14238207967355845
1746521849758236700,10.082236572265625,-0.05049859961569309,0.0018554916735738516,-0.19438669993802904
1746521849768226600,10.0922265625,-1.4475310504078864,0.05503156687021255,-0.3401284287704155
1746521849778216700,10.102216796875,-1.932017279371619,0.4547230684606358,0.20515994982160626
1746521849788206800,10.112206787109375,-1.3722574904978275,0.3769776020117104,0.11228223456200212
1746521849798196700,10.12219677734375,-1.2943389690369367,0.0867591227814555,-0.22745511253159492
1746521849808187000,10.132186767578125,-0.6879752498984336,0.006887348360940813,-0.14291848810520022
1746521849818176800,10.1421767578125,-0.09581950433254241,-0.0322746683999896,-0.17269154894780367
1746521849828166700,10.152166748046875,0.32348142801523205,-0.1349408968221396,-0.26808749410603194
1746521849838156800,10.16215673828125,0.3884790931046009,-0.15300985667183994,-0.36317638260908425
1746521849848146700,10.172146728515624,0.5004962835222483,-0.06542093200273812,-0.2093188230667263
1746521849858136600,10.182136474609376,0.7591244233548641,0.040063203384354706,-0.0057085503725334994
1746521849868126700,10.192126708984375,0.8311240761607885,0.05635317086279392,0.10537106693405657
1746521849878116600,10.20211669921875,0.8753963486075401,0.020628873465582728,0.20545078599434344
1746521849888106800,10.212106689453124,0.873546336826682,-0.03378704572431743,0.2727315205195919
1746521849898097000,10.222096923828126,0.8503659522473812,-0.10975472537837921,0.3531122673755511
1746521849908086800,10.232086669921875,0.8816676839619875,-0.20324724806807934,0.33235012291911986
1746521849918076700,10.24207666015625,0.8803601084947585,-0.2686695683103055,0.17908435525745153
1746521849928066800,10.25206689453125,0.7746791353613137,-0.2680919876180589,0.08880213638376444
1746521849938056700,10.262056640625,0.6337257733166217,-0.23712620985955,0.0252847729800269
1746521849948045800,10.2720458984375,0.3983393928617239,-0.21576909518465398,-0.12955105700995773
1746521849958035700,10.28203564453125,0.0740390496790409,-0.17844532670155167,-0.3275723505906761
1746521849968025600,10.292025634765626,-0.26782559176683424,-0.061507119559869164,-0.3222867018053308
1746521849978015700,10.302015625,-0.4837754503458738,0.09530519813485443,-0.2100685819881037
1746521849988005600,10.312005615234375,-0.6183113465636968,0.15846527253352105,-0.15474139317218213
1746521849997995500,10.32199560546875,-0.6963835972815752,0.1415944364272058,-0.1507244856810197
1746521850007986000,10.33198583984375,-0.7173404605925082,0.15188362912088632,-0.13437255888227373
1746521850017975800,10.341975830078125,-0.7111632332623005,0.12974771209321914,-0.13209705169834196
1746521850027965700,10.351965576171875,-0.6632628334462642,0.0909581088412553,-0.13426931770350783
1746521850037955800,10.361955810546876,-0.553429416808486,0.056876317954063414,-0.08366996112708001
1746521850047945700,10.37194580078125,-0.3590723813563585,0.016940759537369014,-0.09266531461793928
1746521850057935600,10.381935546875,-0.12820318606495856,-0.025624855121970175,-0.08358458439856767
1746521850067925800,10.39192578125,0.03895663038194179,-0.051915261480584736,-0.05593414173312485
1746521850077915600,10.40191552734375,0.09793488905131817,-0.11110635918304324,-0.026441103408299384
1746521850087905500,10.411905517578125,0.08858253881633281,-0.13567710214219986,-0.03214716956280172
1746521850097895700,10.421895751953125,0.04640168569087982,-0.15926102602109313,-0.045814716115780175
1746521850107885600,10.431885498046874,-0.008995791882276534,-0.14759703784286976,-0.049151276659965513
1746521850117875700,10.441875732421876,-0.06322773280739784,-0.0835253284920007,-0.030492570756189524
1746521850127865900,10.451865966796875,-0.11447802757322788,0.006181976570561528,-0.014130049498192965
1746521850137855700,10.461855712890625,-0.16007950279712677,0.043239130006730554,0.0030185075709596274
1746521850147845600,10.471845703125,-0.21785481541752813,0.07654379904158413,0.008201755427755414
1746521850157835800,10.481835693359375,-0.2255857019305229,0.07760740968510509,-0.032707908718101676
1746521850167825700,10.49182568359375,-0.15214520266652107,0.04138049652799964,-0.01365731741990894
1746521850177815600,10.501815673828125,-0.08844517617225646,0.014063888926804064,0.015590550504811108
1746521850187805700,10.5118056640625,-0.023639818784594535,-0.03178272016458213,0.03509122365806252
1746521850197795600,10.521795654296875,0.03618190497159958,-0.036458603021129965,0.02399718085490167
1746521850207785700,10.53178564453125,0.03387830420434475,-0.04234305794984102,-0.047239013297855854
1746521850217775900,10.54177587890625,-0.02370762332379818,-0.03719663497209549,-0.13167305413261055
1746521850227765800,10.551765869140626,-0.041781624674797055,-0.0002444762803614139,-0.1431053159141913
1746521850237755600,10.561755615234375,-0.02218377475738525,0.03639204059094191,-0.05911770367268473
1746521850247745800,10.571745849609375,0.022110124999284744,0.009610051323100924,0.02685563902594149
1746521850257735700,10.581735595703124,0.03786883514523506,-0.031481910587102174,0.03281993599152192
1746521850267725800,10.591725830078126,0.04995265617072582,-0.0635042847264558,-0.027854459071252495
1746521850277715700,10.6017158203125,0.08108663010299205,-0.0807764681752771,-0.07998202986195684
1746521850287705600,10.61170556640625,0.04335749568939209,-0.082588997489959,-0.033626667530834674
1746521850297695700,10.62169580078125,-0.036216391763091084,-0.046981677535921335,0.009589245997089891
1746521850307685600,10.631685546875,-0.10359481450915337,-0.03652662675604224,-0.016081804620474576
1746521850317675800,10.64167578125,-0.12577683570086956,-0.031315833305194975,-0.014353629120998085
1746521850327664600,10.65166455078125,-0.1159364096879959,-0.021703151633590458,-0.025453517143055795
1746521850337654800,10.66165478515625,-0.10396715495288371,-0.054180868325009936,-0.06882040171530097
1746521850347645000,10.67164501953125,-0.07706219689249992,-0.03344261620081961,-0.07591408630330115
1746521850357634800,10.681634765625,-0.04532499637007713,-0.011579086373746394,-0.0254346297794953
1746521850367624700,10.691624755859374,-0.0037158056527376174,0.0013380436707288027,-0.012271562149934469
1746521850377614800,10.70161474609375,0.027694062611460683,-0.016735738484561443,-0.0470186120128259
1746521850387604700,10.711604736328125,0.05907178217172623,-0.03725822896622121,-0.0669296560652554
1746521850397594600,10.7215947265625,0.06428104125261307,-0.06593531126566231,-0.06368985216012224
1746521850407584800,10.731584716796876,0.11335983719825744,-0.05206811395473778,0.028166118836309758
1746521850417574700,10.74157470703125,0.16504150911867618,-0.06040580725446343,-0.000039071635063737626
1746521850427564500,10.751564453125,0.06144903269708156,-0.07039514021873473,-0.12534480095915496
1746521850437554700,10.7615546875,-0.06510170998573303,-0.02985938741918653,-0.12119142587305977
1746521850447544800,10.771544921875,-0.24152093768715857,0.04191657616607845,-0.06558129192991181
1746521850457534700,10.78153466796875,-0.36044250066578387,0.053072943615727126,-0.03389635131768882
1746521850467524900,10.79152490234375,-0.3314098829269409,0.035703400739654896,-0.035210283460468055
1746521850477514800,10.8015146484375,-0.31806174105405804,-0.02771704162824899,-0.1367800036164932
1746521850487504600,10.811504638671876,-0.40904432674944396,-0.08592888250239193,-0.2014399977167137
1746521850497494800,10.821494873046875,-0.5326876575529575,-0.05178626480605453,0.007995327869150788
1746521850507484700,10.831484619140625,-0.6644546735793352,0.10001388728246093,0.21586176017047837
1746521850517474600,10.841474609375,-0.5120633871972561,0.09507529836911707,0.008419435032736509
1746521850527465200,10.85146533203125,-0.22779753276109693,-0.005782236663252115,-0.16784089404623956
1746521850537455400,10.861455322265625,-0.062007835623621936,-0.056848845425248144,-0.13777350816586986
1746521850547445200,10.8714453125,0.14940204143822192,-0.0691061233215034,-0.12733962803818286
1746521850557435400,10.881435302734374,0.3336117768853903,-0.09604637189097702,-0.0760400142379105
1746521850567425300,10.89142529296875,0.3753010471016168,-0.1267958034850657,-0.0032802820459939537
1746521850577415200,10.901415283203125,0.39457098023891446,-0.11559066499024628,0.057193749872781335
1746521850587405600,10.911405517578125,0.382113649725914,-0.06931713572368026,0.031703225187584755
1746521850597395500,10.9213955078125,0.289995337998867,-0.02908390953466296,0.009941530033480375
1746521850607385300,10.93138525390625,0.16079378854632376,0.010151464723423122,-0.030882154595665633
1746521850617375500,10.94137548828125,0.07485036606192588,0.03267535815536975,-0.0709167529400438
1746521850627365400,10.951365478515624,-0.028286183285713196,0.05328333496339619,-0.07717959446078165
1746521850637355300,10.961355224609376,-0.1793015051394701,0.05535743782371282,-0.11597173672970383
1746521850647345400,10.971345458984375,-0.2682926247566938,0.02932012944333255,-0.13815023252377287
1746521850657335300,10.981335205078125,-0.26732757911682126,0.0014612316589802503,-0.10407026826748624
1746521850667325200,10.9913251953125,-0.22631050907373426,-0.03486826508976519,-0.06128724799780175
1746521850677315300,11.0013154296875,-0.20619068110883235,-0.09777100372649729,-0.04867014207951724
1746521850687305500,11.011305419921875,-0.18255203136801718,-0.14953341273292897,-0.08826497903345153
1746521850697295400,11.02129541015625,-0.09277823694050312,-0.13675116111449898,-0.09345611793575807
1746521850707285500,11.031285400390624,0.039764439633488656,-0.09262538446635007,-0.03856425179718062
1746521850717275400,11.041275390625,0.053155836126208306,-0.0550784747518599,0.004523066915012895
1746521850727265300,11.051265380859375,-0.07534954775571823,-0.010956059104576706,0.06586646554684267
1746521850737255400,11.06125537109375,-0.20709961264729498,0.005152560457587242,0.03960033511295914
1746521850747245300,11.071245361328126,-0.2046189017474651,-0.00869454391337931,-0.18327594346208498
1746521850757235200,11.081235107421875,-0.08367898468375205,0.029070903922617432,-0.19710649855704976
1746521850767225300,11.091225341796875,0.011861702707409858,0.04425181418061256,-0.09182647090731189
1746521850777215200,11.10121533203125,-0.004878419691324234,0.02206906233653426,-0.0018232881707139312
1746521850787205400,11.111205322265626,-0.15979717872440813,0.013778276918455958,-0.00405141254896298
1746521850797195500,11.121195556640625,-0.21419278577864168,0.011078370309993623,-0.04429453907748684
1746521850807185400,11.131185302734375,-0.18115794666111468,-0.012547346884012222,-0.10218458238504827
1746521850817175300,11.14117529296875,-0.0948264016419649,-0.01877403937913477,-0.11540111550120637
1746521850827165400,11.15116552734375,0.04177870206534862,-0.050611631536111236,-0.11574375492641702
1746521850837155300,11.1611552734375,0.17790975852012633,-0.06702171826288103,-0.1274948003335856
1746521850847145200,11.171145263671875,0.222086753898859,-0.08538805362395942,-0.10178118921592831
1746521850857135400,11.18113525390625,0.13680559471547601,-0.08595116739943623,-0.027174367852602153
1746521850867125200,11.191125244140625,0.012167992177605629,-0.10472644888758659,0.032375352295488116
1746521850877115100,11.201115234375,-0.047290743485093115,-0.07888941231966018,0.028803430359158663
1746521850887105300,11.211105224609375,-0.006906710648536682,-0.028145751901715994,0.024167185393255203
1746521850897095400,11.221095458984376,0.03960603420138359,-0.0055085342884063715,-0.025185495590325443
1746521850907085300,11.231085205078125,0.03901215996146202,-0.022990122704207895,-0.07977739240163936
1746521850917075500,11.241075439453125,0.012967618122696875,-0.008676496800035238,-0.09200283212121575
1746521850927065300,11.2510654296875,-0.047021278893947596,0.005483911303803325,-0.12379523342959582
1746521850937055200,11.26105517578125,-0.1641080276608467,0.036056525026261804,-0.12273297449294476
1746521850947045400,11.27104541015625,-0.2656494167715311,0.047204745702072975,-0.09739546667868271
1746521850957035300,11.28103515625,-0.2837713489174843,0.05886011218242347,-0.03554632874811068
1746521850967025200,11.291025146484374,-0.302975815603137,0.05673932063616812,0.020125106928218155
1746521850977015300,11.301015380859376,-0.3137491385519504,0.010897022393718361,-0.0005482449999079108
1746521850987005200,11.311005126953125,-0.26157120754718777,-0.04216828590482473,-0.030801454042270776
1746521850996995300,11.320995361328125,-0.1766308246254921,-0.09712620301693678,-0.03535836842795834
1746521851006985500,11.3309853515625,-0.07594576008319855,-0.09374569373317063,-0.012006390141416341
1746521851016975400,11.340975341796875,0.0016167875468730926,-0.07245784490220249,-0.0018093144442886113
1746521851026964500,11.350964599609375,0.08523615099787711,-0.06850486949272454,-0.011347889700066298
1746521851036954400,11.360954345703124,0.14078385069668292,-0.05423625177405774,-0.03523443152103573
1746521851046944300,11.3709443359375,0.15057693043649195,-0.0356075391497463,-0.03837755185235291
1746521851056934400,11.380934326171875,0.13253449326753616,-0.014488471014425158,-0.029324951748922464
1746521851066924300,11.39092431640625,0.09010872547030449,0.022172595776244995,-0.03766443514693528
1746521851076914400,11.40091455078125,0.008967734831571579,0.059516530264541505,-0.03411242348747328
1746521851086904300,11.410904296875,-0.14648586173057554,0.06350340794362128,-0.08620170809440314
1746521851096894200,11.420894287109375,-0.23127777609229086,0.022141616116091608,-0.14629591038273645
1746521851106884400,11.43088427734375,-0.2113689605295658,0.026174159567803144,-0.10438548996280878
1746521851116874500,11.44087451171875,-0.16250585316121577,0.03314575214609503,-0.03236371665662154
1746521851126864400,11.450864501953125,-0.11132862363159655,0.01256663610637188,0.00022639263439923525
1746521851136854500,11.4608544921875,-0.07217793198227881,-0.016858488081395624,-0.008551719642896204
1746521851146844400,11.470844482421874,-0.013282090899348259,-0.03623736148588359,-0.016853684042114764
1746521851156834300,11.480834228515626,0.05749065046012401,-0.049040728957578536,-0.011304452417138964
1746521851166824400,11.490824462890625,0.05937690259814262,-0.06555771012492477,0.0007526449982076883
1746521851176814300,11.500814453125,-0.0023977087914943693,-0.06808120072055608,-0.012670498339645564
1746521851186804200,11.51080419921875,-0.059311436146497726,-0.05054835704155266,-0.05631572492923587
1746521851196794400,11.52079443359375,-0.12085691495537758,-0.003453976378776133,-0.09216357564087957
1746521851206784300,11.5307841796875,-0.13083645717799663,0.056309404786303634,-0.1306399116925895
1746521851216774100,11.540774169921875,-0.13117840248346327,0.10264748718906193,-0.10761535699581727
1746521851226764500,11.5507646484375,-0.1356219378888607,0.09270721753090619,-0.07745623771138489
1746521851236754400,11.56075439453125,-0.10344634594917297,0.07202559096477926,-0.08209628206957131
1746521851246744300,11.570744384765625,-0.05289163223206997,0.03670519819334149,-0.046377026173658666
1746521851256734500,11.580734375,-0.04166238220930099,-0.007753317540511489,-0.05779960681144148
1746521851266724400,11.590724365234376,-0.021228665989637373,-0.0429167296519503,-0.09996887909695505
1746521851276714200,11.60071435546875,0.0450736519575119,-0.03905139599330723,-0.09385156526044011
1746521851286704400,11.610704345703125,0.06117255384325981,-0.03980181250181049,-0.0892291661567986
1746521851296694300,11.6206943359375,0.0021907880425453183,-0.013988960527069865,-0.08108423721650615
1746521851306684200,11.63068408203125,-0.08165361633598804,0.012230207226239144,-0.05716320860404521
1746521851316674300,11.64067431640625,-0.1919195791721344,0.038355157357454296,-0.04606313791889697
1746521851326664400,11.65066455078125,-0.2752384983718395,0.045721631004847586,-0.06003215163648128
1746521851336654300,11.660654296875,-0.2747679582506418,0.04805880524814129,-0.042364721792377526
1746521851346644500,11.67064453125,-0.2359428452938795,0.047783970362134276,-0.02676624370943755
1746521851356634400,11.68063427734375,-0.13757657908797263,0.02104980229139328,-0.010535879197437316
1746521851366624300,11.690624267578125,-0.07821662762463093,-0.011332929592952132,-0.049436139749642456
1746521851376614400,11.700614501953124,-0.03882335939109325,-0.04178838320914656,-0.0976080499834381
1746521851386604300,11.710604248046875,-0.05157528893649578,-0.03558076074067503,-0.13362380460789428
1746521851396594200,11.72059423828125,-0.026150340300798415,-0.0019916852738708257,-0.1101282165995799
1746521851406584300,11.730584228515625,0.0070411506831645964,0.034441965969093144,-0.0717761462483555
1746521851416574200,11.74057421875,0.016886837393045424,0.04820278029609471,-0.04293400958031416
1746521851426564400,11.750564453125,0.01672843196094036,0.020256350358761846,-0.04341249554594979
1746521851436554500,11.760554443359375,0.037871757754683495,-0.0013370938226580618,-0.04144950664360076
1746521851446544400,11.77054443359375,0.05185585944354534,0.0009229600638151168,-0.025298764972761272
1746521851456533500,11.780533447265626,0.016153846943378448,-0.005127681744657457,-0.015184928845986724
1746521851466523400,11.7905234375,-0.04857493807673454,-0.003955423094891011,-0.013437299727369099
1746521851476513300,11.80051318359375,-0.09353519278764724,-0.022113924391567705,-0.03281613659923896
1746521851486503400,11.81050341796875,-0.15268705445826053,-0.04411890851594508,-0.06861475960798562
1746521851496493300,11.820493408203125,-0.17022504923641682,-0.020719657021574675,-0.10088606700710952
1746521851506483200,11.830483154296875,-0.15841946063041687,0.05469082714114338,-0.0873271867266856
1746521851516473300,11.840473388671874,-0.137508774548769,0.0811260853305459,-0.06407256786739453
1746521851526463000,11.850462890625,-0.12368658542335033,0.05354388559572398,-0.06783287024898454
1746521851536453000,11.860453125,-0.08404431086480617,0.020367555648274718,-0.05903903067959472
1746521851546443000,11.870443115234375,-0.05911503679156303,0.017348755816370246,-0.06709019865551963
1746521851556433200,11.88043310546875,-0.005917699611186981,0.014072656755149364,-0.08944796000663191
1746521851566423300,11.89042333984375,0.03621230010986328,0.0020954744419083,-0.0980748820438981
1746521851576413200,11.9004130859375,0.02540332132577896,0.0028457448199391364,-0.0504179903938435
1746521851586403000,11.910403076171875,-0.032037644773721695,-0.012976860875077545,-0.002776405910775065
1746521851596393200,11.920393310546874,-0.1419914729207754,-0.022758761633746325,-0.0034174072280526158
1746521851606383000,11.930383056640625,-0.20247429093420505,-0.03970708342306316,-0.012266173588763921
1746521851616373000,11.940373046875,-0.19944120684862135,-0.03183726336341351,-0.0313977029023692
1746521851626363100,11.950363037109375,-0.13465513868331908,-0.014916012244112788,-0.018004772039689122
1746521851636353000,11.96035302734375,-0.09126607881188392,-0.024224779065698383,-0.061233545049186794
1746521851646343000,11.970343017578125,-0.04782558101415634,-0.015265775529853998,-0.10151968873552977
1746521851656333300,11.980333251953125,0.009895371070504188,-0.006740816029720008,-0.11871120816357433
1746521851666323200,11.9903232421875,0.06646306146681308,0.005829582936316728,-0.12240237256539985
1746521851676313000,12.00031298828125,0.10241641837954521,0.04469038826096803,-0.12770137402266263
1746521851686303200,12.01030322265625,0.09995382765829562,0.07217522856853902,-0.10250064433058723
