time,seconds_elapsed,z,y,x
1746521839708329500,0.03232958984375,-0.020974338054656982,0.13588230311870575,0.0468362420797348
1746521839718319400,0.0423193359375,-0.021392881870269775,0.1505257934331894,0.06386826932430267
1746521839728309500,0.0523095703125,-0.02682945877313614,0.15402865409851074,0.07775106281042099
1746521839738299400,0.06229931640625,-0.03387579321861267,0.1482205092906952,0.08638691157102585
1746521839748289300,0.072289306640625,-0.04060640186071396,0.15094998478889465,0.09259846806526184
1746521839758279400,0.082279541015625,-0.0461173877120018,0.1765921264886856,0.10082796216011047
1746521839768269300,0.092269287109375,-0.046264395117759705,0.19500522315502167,0.11161430180072784
1746521839778259200,0.10225927734375,-0.04431532695889473,0.19290414452552795,0.11576467752456665
1746521839788249600,0.11224951171875,-0.04023083671927452,0.17852599918842316,0.11800146847963333
1746521839798238200,0.12223828125,-0.028599824756383896,0.1587500125169754,0.11292480677366257
1746521839808228600,0.132228515625,-0.015733027830719948,0.1347288340330124,0.10019595921039581
1746521839818218500,0.142218505859375,-0.0013390837702900171,0.09634122997522354,0.0755009651184082
1746521839828208400,0.15220849609375,0.006707124877721071,0.058093708008527756,0.04402239993214607
1746521839838198500,0.162198486328125,0.013866434805095196,0.03115752898156643,0.007948444224894047
1746521839848188400,0.1721884765625,0.01346775982528925,0.023664725944399834,-0.023305613547563553
1746521839858178300,0.18217822265625,0.009515475481748581,0.03818105161190033,-0.05202783644199371
1746521839868168400,0.19216845703125,0.0051633380353450775,0.06117717921733856,-0.08133219182491302
1746521839878158300,0.202158447265625,-0.000515030522365123,0.07335297763347626,-0.10351087152957916
1746521839888148200,0.212148193359375,0.0296053197234869,0.15508006513118744,-0.1263141930103302
1746521839898138400,0.222138427734375,0.06034991145133972,0.2995840013027191,-0.1199035793542862
1746521839908128500,0.23212841796875,0.029032470658421516,0.09760905802249908,-0.09374574571847916
1746521839918118400,0.242118408203125,0.007884702645242214,0.032115209847688675,-0.10043756663799286
1746521839928108500,0.252108642578125,0.006710781715810299,0.07088258117437363,-0.12671445310115814
1746521839938098400,0.262098388671875,0.01299376878887415,0.09275676310062408,-0.14671488106250763
1746521839948088300,0.27208837890625,0.017440715804696083,0.06431127339601517,-0.14352893829345703
1746521839958078500,0.282078369140625,0.019258765503764153,0.034457508474588394,-0.1390843540430069
1746521839968068400,0.292068359375,0.018136508762836456,0.02571967802941799,-0.1274159848690033
1746521839978058200,0.302058349609375,0.01539670117199421,0.030087850987911224,-0.10936345160007477
1746521839988048400,0.31204833984375,0.012547651305794716,0.04890467971563339,-0.09815900027751923
1746521839998038300,0.322038330078125,0.024491220712661743,0.25996842980384827,-0.12051920592784882
1746521840008028200,0.332028076171875,0.02983725070953369,0.2911740243434906,-0.13261182606220245
1746521840018018600,0.3420185546875,0.026198476552963257,0.23478907346725464,-0.1419881284236908
1746521840028008400,0.352008544921875,0.010260523296892643,0.19187915325164795,-0.15408767759799957
1746521840037998300,0.361998291015625,-0.0026810176204890013,0.1640688180923462,-0.17001980543136597
1746521840047988500,0.371988525390625,-0.0007369100349023938,0.15082785487174988,-0.17640338838100433
1746521840057978400,0.381978271484375,-0.004377360455691814,0.15713581442832947,-0.16507193446159363
1746521840067967500,0.391967529296875,0.01078854314982891,0.1861640065908432,-0.16077013313770294
1746521840077957400,0.401957275390625,0.02778765745460987,0.1901077926158905,-0.16393710672855377
1746521840087947300,0.411947265625,0.04807641729712486,0.161086767911911,-0.1591854989528656
1746521840097937400,0.4219375,0.0667065754532814,0.11128311604261398,-0.13395090401172638
1746521840107927300,0.43192724609375,0.08702036738395691,0.03907230496406555,-0.09464983642101288
1746521840117917200,0.441917236328125,0.10388102382421494,-0.023285361006855965,-0.053741466253995895
1746521840127907300,0.4519072265625,0.13064472377300262,-0.06465623527765274,-0.020418131723999977
1746521840137897500,0.4618974609375,0.15415027737617493,-0.07643400877714157,0.009757407009601593
1746521840147887400,0.471887451171875,0.16854813694953918,-0.0690634474158287,0.032213181257247925
1746521840157877500,0.48187744140625,0.1664533168077469,-0.04433578625321388,0.04663733392953873
1746521840167867400,0.491867431640625,0.14457306265830994,-0.009427601471543312,0.046332135796546936
1746521840177857300,0.501857177734375,0.11735355108976364,0.017772801220417023,0.02306453138589859
1746521840187847400,0.511847412109375,0.08978557586669922,0.04406805336475372,-0.014447957277297974
1746521840197837300,0.52183740234375,0.07307223230600357,0.04622116684913635,-0.054079242050647736
1746521840207827500,0.531827392578125,0.06758159399032593,0.029198508709669113,-0.0854928195476532
1746521840217817300,0.5418173828125,0.07474416494369507,0.015016642399132252,-0.0950586274266243
1746521840227807200,0.55180712890625,0.08982618153095245,-0.018373804166913033,-0.09204712510108948
1746521840237797400,0.56179736328125,0.1133498102426529,-0.037853918969631195,-0.08749737590551376
1746521840247787500,0.57178759765625,0.13528892397880554,-0.02038145437836647,-0.08564727753400803
1746521840257777400,0.58177734375,0.14916421473026276,0.0322050042450428,-0.08285364508628845
1746521840267767600,0.591767578125,0.15377841889858246,0.08688156306743622,-0.07353417575359344
1746521840277757400,0.60175732421875,0.1459832489490509,0.12334130704402924,-0.06538300216197968
1746521840287747300,0.611747314453125,0.13532981276512146,0.13286477327346802,-0.05188131332397461
1746521840297737500,0.621737548828125,0.11667842417955399,0.10570894181728363,-0.03842649608850479
1746521840307727400,0.631727294921875,0.09000447392463684,0.06308025121688843,-0.01313711702823639
1746521840317717200,0.64171728515625,0.06569087505340576,0.032443251460790634,0.015725422650575638
1746521840327706400,0.651706298828125,0.04252563416957855,0.0335087813436985,0.03354223445057869
1746521840337696300,0.6616962890625,0.016149211674928665,0.058975040912628174,0.02478140778839588
1746521840347686400,0.671686279296875,-0.019229551777243614,0.10685122013092041,-0.015224065631628036
1746521840357676300,0.68167626953125,-0.06175176426768303,0.15933221578598022,-0.08240924775600433
1746521840367666400,0.69166650390625,-0.09842348843812943,0.20554712414741516,-0.16630469262599945
1746521840377656600,0.701656494140625,-0.11681021004915237,0.23025736212730408,-0.24017083644866943
1746521840387646500,0.711646484375,-0.12169551104307175,0.2281273752450943,-0.2870800197124481
1746521840397636400,0.72163623046875,-0.1204342246055603,0.20774710178375244,-0.3075287342071533
1746521840407626500,0.73162646484375,-0.11231450736522675,0.1761132776737213,-0.31456056237220764
1746521840417616400,0.741616455078125,-0.0939488336443901,0.12358871102333069,-0.3089480400085449
1746521840427606300,0.751606201171875,-0.06792841851711273,0.07940234243869781,-0.2883721888065338
1746521840437596400,0.761596435546875,-0.03943266719579697,0.0457582026720047,-0.24414531886577606
1746521840447586300,0.77158642578125,-0.0196594949811697,0.01736624166369438,-0.17822782695293427
1746521840457576200,0.781576171875,0.0008514433284290135,-0.008606609888374805,-0.09909705817699432
1746521840467566600,0.791566650390625,0.014662597328424454,-0.04442426189780235,-0.01696171425282955
1746521840477556500,0.801556396484375,0.022039948031306267,-0.0804491639137268,0.06058809906244278
1746521840487546400,0.81154638671875,0.022945690900087357,-0.09474767744541168,0.12343311309814453
1746521840497536500,0.82153662109375,0.024223066866397858,-0.08084123581647873,0.16289903223514557
1746521840507526400,0.8315263671875,0.02922661229968071,-0.06172826513648033,0.1804942786693573
1746521840517516300,0.841516357421875,0.02675759047269821,-0.045505341142416,0.1796371191740036
1746521840527506400,0.85150634765625,0.020772667601704597,-0.032177288085222244,0.16311700642108917
1746521840537496300,0.861496337890625,0.010619516484439373,-0.016861671581864357,0.14115670323371887
1746521840547486200,0.871486328125,0.005342195741832256,-0.0023237403947860003,0.11191228032112122
1746521840557476400,0.881476318359375,0.006410278845578432,0.01573931612074375,0.07959941029548645
1746521840567466200,0.89146630859375,0.011145645752549171,0.03611436113715172,0.04868144541978836
1746521840577456000,0.9014560546875,0.010570026002824306,0.033734191209077835,0.02586381882429123
1746521840587446300,0.9114462890625,0.01136977318674326,0.009452554397284985,0.011148521676659584
1746521840597436200,0.921436279296875,0.014715262688696384,-0.0229116789996624,0.0036662204656749964
1746521840607426000,0.931426025390625,0.022735638543963432,-0.05275080353021622,0.007448707707226276
1746521840617416200,0.941416259765625,0.03587968274950981,-0.06807691603899002,0.011645405553281307
1746521840627406300,0.95140625,0.04012689366936684,-0.08525536954402924,0.0196993350982666
1746521840637396200,0.961396240234375,0.03752807527780533,-0.09063959121704102,0.033139463514089584
1746521840647385300,0.97138525390625,0.033478740602731705,-0.09255893528461456,0.045538075268268585
1746521840657375200,0.981375244140625,0.029382232576608658,-0.08954871445894241,0.06356149166822433
1746521840667365400,0.991365478515625,0.024245526641607285,-0.07211192697286606,0.08287154138088226
1746521840677355300,1.001355224609375,0.01620294898748398,-0.05392652377486229,0.09339172393083572
1746521840687345200,1.01134521484375,0.00779242068529129,-0.051014889031648636,0.09162045270204544
1746521840697335300,1.021335205078125,0.003865115577355027,-0.05352753400802612,0.06995101273059845
1746521840707325200,1.0313251953125,0.003938618581742048,-0.04461633414030075,0.04175479710102081
1746521840717315000,1.041315185546875,0.0024222226347774267,-0.03765883296728134,0.006421186961233616
1746521840727305200,1.05130517578125,-0.002509685466066003,-0.021353894844651222,-0.013113100081682205
1746521840737295000,1.061295166015625,-0.0030615441501140594,-0.014278464019298553,-0.027177011594176292
1746521840747285200,1.07128515625,-0.002179238712415099,-0.007736675441265106,-0.03366607055068016
1746521840757275400,1.081275390625,-0.004081073682755232,-0.01284770667552948,-0.041547954082489014
1746521840767265300,1.091265380859375,-0.0009286899585276842,-0.018890686333179474,-0.047330740839242935
1746521840777255400,1.10125537109375,0.006126373540610075,-0.01452176459133625,-0.05888132005929947
1746521840787245300,1.111245361328125,0.014286831952631474,-0.00979651790112257,-0.060957785695791245
1746521840797235200,1.121235107421875,0.014877624809741974,-0.00705521646887064,-0.04030119627714157
1746521840807225300,1.131225341796875,0.0028619742952287197,-0.004382201936095953,-0.014690108597278595
1746521840817215200,1.14121533203125,-0.004006401635706425,-0.00683045107871294,0.003245400032028556
1746521840827205000,1.151205078125,-0.0059465146623551846,-0.015046036802232265,0.015320705249905586
1746521840837195300,1.1611953125,-0.0071541378274559975,-0.03393840789794922,0.021140040829777718
1746521840847185400,1.171185302734375,-0.01219337061047554,-0.040108684450387955,0.02945842407643795
1746521840857175300,1.18117529296875,-0.012227015569806099,-0.030725179240107536,0.030679743736982346
1746521840867165400,1.19116552734375,-0.010888510383665562,-0.013761376962065697,0.027848538011312485
1746521840877155300,1.2011552734375,-0.014129986986517906,-0.014290866442024708,0.022648733109235764
1746521840887145200,1.211145263671875,-0.021582044661045074,-0.027722518891096115,0.01950966566801071
1746521840897135400,1.22113525390625,-0.020027795806527138,-0.04196154326200485,0.01628282107412815
1746521840907125200,1.231125244140625,-0.013015160337090492,-0.041366592049598694,0.009246483445167542
1746521840917115100,1.241115234375,-0.003759494749829173,-0.033487942069768906,-0.0028987221885472536
1746521840927105300,1.251105224609375,-0.004970966838300228,-0.028733136132359505,-0.016129571944475174
1746521840937095200,1.26109521484375,-0.015390695072710514,-0.028615793213248253,-0.02994677796959877
1746521840947085000,1.2710849609375,-0.02056708186864853,-0.009016791358590126,-0.047845084220170975
1746521840957075500,1.281075439453125,-0.015838898718357086,0.035068102180957794,-0.061513081192970276
1746521840967065300,1.2910654296875,-0.02368936501443386,0.07571593672037125,-0.05210759863257408
1746521840977055200,1.30105517578125,-0.038468435406684875,0.0700405165553093,-0.026965506374835968
1746521840987045400,1.31104541015625,-0.03708465397357941,0.034368544816970825,0.00433782022446394
1746521840997035300,1.32103515625,-0.026468047872185707,0.010200085118412971,0.022303421050310135
1746521841007024400,1.3310244140625,-0.015493159182369709,0.015183125622570515,0.021417653188109398
1746521841017014300,1.34101416015625,-0.014964264817535877,0.024442678317427635,0.012610439211130142
1746521841027004200,1.351004150390625,-0.022668523713946342,0.03357119485735893,0.0029194618109613657
1746521841036994300,1.360994384765625,-0.0232533011585474,0.030432984232902527,-0.003936822526156902
1746521841046984200,1.370984130859375,-0.017501939088106155,0.02400544285774231,-0.012821659445762634
1746521841056974000,1.38097412109375,-0.016842305660247803,0.006459255237132311,-0.017286507412791252
1746521841066964200,1.390964111328125,-0.0207318514585495,-0.01846526935696602,-0.01565106026828289
1746521841076954400,1.400954345703125,-0.016141178086400032,-0.025846226140856743,-0.014312106184661388
1746521841086944300,1.4109443359375,-0.014401867985725403,-0.01890389807522297,-0.019419515505433083
1746521841096934400,1.420934326171875,-0.013375585898756981,-0.019650103524327278,-0.028111375868320465
1746521841106924300,1.43092431640625,-0.010765952989459038,-0.00976338516920805,-0.0389656201004982
1746521841116914200,1.4409140625,-0.0029317049775272608,-0.0031799543648958206,-0.04487959295511246
1746521841126904300,1.450904296875,-0.0005084947915747762,0.009512404911220074,-0.041551440954208374
1746521841136894200,1.460894287109375,-0.007802758365869522,0.02339365892112255,-0.03283986821770668
1746521841146884000,1.470884033203125,-0.016552573069930077,0.042743656784296036,-0.026442687958478928
1746521841156874200,1.480874267578125,-0.014840991236269474,0.048035938292741776,-0.022976906970143318
1746521841166864100,1.490864013671875,-0.007158837281167507,0.050369132310152054,-0.02317504771053791
1746521841176854300,1.500854248046875,-0.0005744895315729082,0.04276122897863388,-0.02135453373193741
1746521841186844400,1.510844482421875,-0.005368711892515421,0.035207703709602356,-0.01752118021249771
1746521841196834300,1.520834228515625,-0.005836104974150658,0.021941974759101868,-0.016142338514328003
1746521841206824200,1.53082421875,-0.007469154894351959,-0.0012807915918529034,-0.015104771591722965
1746521841216814300,1.540814453125,-0.007607683539390564,-0.01701614074409008,-0.011751999147236347
1746521841226804200,1.55080419921875,-0.0031394315883517265,-0.016518395394086838,-0.01722373068332672
1746521841236794000,1.560794189453125,-0.002037403639405966,-0.007040360476821661,-0.026705292984843254
1746521841246784300,1.5707841796875,-0.0071408189833164215,0.004051971714943647,-0.031028402969241142
1746521841256774100,1.580774169921875,-0.010478519834578037,0.011257895268499851,-0.027638794854283333
1746521841266764300,1.590764404296875,-0.0092603899538517,0.012172158807516098,-0.025962335988879204
1746521841276754200,1.600754150390625,-0.00939085241407156,0.004121905658394098,-0.027637138962745667
1746521841286744300,1.610744384765625,-0.00537507189437747,-0.007948072627186775,-0.03156823292374611
1746521841296734200,1.620734130859375,-0.005428017117083073,-0.01358699519187212,-0.029679227620363235
1746521841306724400,1.630724365234375,-0.0039006939623504877,-0.008275587111711502,-0.02285248041152954
1746521841316714200,1.64071435546875,-0.002139513613656163,0.004064120352268219,-0.020437203347682953
1746521841326704400,1.650704345703125,-0.002029791474342346,0.008327309042215347,-0.014867467805743217
1746521841336693200,1.660693359375,0.0012881453149020672,0.002088470384478569,-0.008656882680952549
1746521841346683100,1.67068310546875,0.007233919110149145,-0.004827759228646755,-0.0031281604897230864
1746521841356673300,1.68067333984375,0.013444390147924423,-0.0004144730046391487,0.0011355942115187645
1746521841366663200,1.6906630859375,0.01138336956501007,-0.003318650182336569,0.006974841468036175
1746521841376653300,1.7006533203125,0.004005269147455692,-0.01446093525737524,0.01783241331577301
1746521841386643200,1.710643310546875,0.002398317912593484,-0.024570560082793236,0.028039244934916496
1746521841396633000,1.720633056640625,0.007656705565750599,-0.02491912618279457,0.03234406188130379
1746521841406623500,1.73062353515625,0.00913476012647152,-0.018278535455465317,0.03582880645990372
1746521841416613400,1.74061328125,0.0059737227857112885,-0.009416540153324604,0.037115488201379776
1746521841426603300,1.750603271484375,0.004753994755446911,0.0027296049520373344,0.033314093947410583
1746521841436593400,1.760593505859375,0.003667444922029972,0.006038953550159931,0.02774059772491455
1746521841446583300,1.770583251953125,0.005287179723381996,0.0045720841735601425,0.01858811266720295
1746521841456573200,1.7805732421875,0.009753690101206303,-0.0004040842759422958,0.011194394901394844
1746521841466563300,1.790563232421875,0.009601091034710407,-0.005680072586983442,0.011327287182211876
1746521841476553200,1.80055322265625,0.003761740867048502,-0.008559325709939003,0.014485746622085571
1746521841486543000,1.810543212890625,0.0019939346238970757,-0.010062414221465588,0.021307433024048805
1746521841496533200,1.820533203125,0.005854381248354912,-0.01873968541622162,0.03187166899442673
1746521841506523400,1.8305234375,0.00963207520544529,-0.026113977655768394,0.03911999613046646
1746521841516512800,1.8405126953125,0.005574268288910389,-0.02672485075891018,0.04790392518043518
1746521841526503000,1.8505029296875,0.0031012569088488817,-0.022927183657884598,0.04934895783662796
1746521841536493000,1.8604931640625,0.004314982332289219,-0.01782381907105446,0.04258400946855545
1746521841546483000,1.87048291015625,0.006254562642425299,-0.011362193152308464,0.034547388553619385
1746521841556473000,1.88047314453125,0.006982794497162104,0.006950981914997101,0.02311711758375168
1746521841566463000,1.890462890625,0.004415240604430437,0.02181914448738098,0.01548795960843563
1746521841576452900,1.900452880859375,0.0044760326854884624,0.016865823417901993,0.013843183405697346
1746521841586443000,1.910443115234375,0.00549708865582943,0.007456609047949314,0.014090324752032757
1746521841596433000,1.920432861328125,0.012159992009401321,0.006148151122033596,0.01179211400449276
1746521841606422800,1.9304228515625,0.0133208641782403,0.0077039701864123344,0.005948872305452824
1746521841616413000,1.940412841796875,0.00948240514844656,0.0006225618999451399,0.0022748946212232113
1746521841626402800,1.95040283203125,0.008274927735328674,-0.011773920617997646,0.00908353179693222
1746521841636393000,1.96039306640625,0.006875027436763048,-0.016856882721185684,0.013239677995443344
1746521841646383000,1.970383056640625,0.003990025259554386,-0.007940884679555893,0.017176097258925438
1746521841656373000,1.980373046875,-0.002456330694258213,0.007626354228705168,0.021629124879837036
1746521841666363000,1.99036279296875,-0.0012642998481169343,0.01759137026965618,0.02953099086880684
1746521841676352000,2.00035205078125,0.004437027033418417,0.028446098789572716,0.04326923191547394
1746521841686342000,2.010341796875,0.006484465207904577,0.032830461859703064,0.05266806110739708
1746521841696332000,2.02033203125,0.007381541188806295,0.034124705940485,0.055557072162628174
1746521841706322000,2.030322021484375,0.008429494686424732,0.019363336265087128,0.050279222428798676
1746521841716311800,2.040311767578125,0.011536474339663982,0.0005207323702052236,0.03830122575163841
1746521841726302000,2.050302001953125,0.013429715298116207,-0.0056106629781425,0.01963752880692482
1746521841736291800,2.060291748046875,0.015621191821992397,-0.0005300930934026837,-0.007139428518712521
1746521841746282000,2.070281982421875,0.017068354412913322,0.005085715092718601,-0.030619721859693527
1746521841756272000,2.080272216796875,0.016644125804305077,0.0016880378825590014,-0.041756771504879
1746521841766262000,2.090261962890625,0.013290408067405224,-0.002231602557003498,-0.040652889758348465
1746521841776252000,2.100251953125,0.013986439444124699,0.0033697299659252167,-0.03455325588583946
1746521841786242000,2.110241943359375,0.01520270574837923,0.00602170592173934,-0.02099829912185669
1746521841796232000,2.12023193359375,0.007617373950779438,-0.0028993068262934685,-0.012406013906002045
1746521841806222000,2.13022216796875,0.0027278102934360504,0.00014628423377871513,-0.009604102000594139
1746521841816212000,2.1402119140625,0.0042228056117892265,0.011963152326643467,-0.007816106081008911
1746521841826201900,2.150201904296875,0.007953894324600697,0.021111909300088882,-0.0026650195941329002
1746521841836192000,2.16019189453125,0.010728367604315281,0.019845319911837578,0.006202097982168198
1746521841846182000,2.170181884765625,0.014587287791073322,0.014497957192361355,0.01190712209790945
1746521841856172000,2.180172119140625,0.017118889838457108,0.00998363271355629,0.012336956337094307
1746521841866162200,2.190162109375,0.01797403022646904,0.0010133077157661319,0.006297439336776733
1746521841876152000,2.200152099609375,0.018195103853940964,-0.004010528791695833,0.0018060744041576982
1746521841886142000,2.210141845703125,0.013145750388503075,-0.004061928018927574,-0.0057242801412940025
1746521841896132000,2.220132080078125,0.014422355219721794,-0.006943157874047756,-0.010609188117086887
1746521841906122000,2.2301220703125,0.013887591660022736,-0.017451724037528038,-0.021443193778395653
1746521841916112000,2.24011181640625,0.012880631722509861,-0.015582290478050709,-0.03639015182852745
1746521841926102000,2.25010205078125,0.012597803957760334,0.0016363775357604027,-0.04782576486468315
1746521841936092000,2.260091796875,0.01139411423355341,0.01061340793967247,-0.05596155300736427
1746521841946081800,2.270081787109375,0.010556550696492195,0.010810481384396553,-0.06365649402141571
1746521841956072000,2.280072021484375,0.011274490505456924,0.005624573677778244,-0.06719298660755157
1746521841966062000,2.29006201171875,0.013725398108363152,0.0037132231518626213,-0.06397109478712082
1746521841976052000,2.300052001953125,0.011584483087062836,0.00349324569106102,-0.054784782230854034
1746521841986042000,2.3100419921875,0.011404452845454216,0.01405480969697237,-0.03994804620742798
1746521841996032000,2.320031982421875,0.0121630122885108,0.02214282937347889,-0.02098105289041996
1746521842006021000,2.330021240234375,0.010747009888291359,0.0224421676248312,-0.003302190685644746
1746521842016011000,2.340010986328125,0.010595770552754402,0.013141706585884094,0.007724470924586058
1746521842026001000,2.3500009765625,0.013640030287206173,-0.0005706437514163554,0.008586802519857883
1746521842035991000,2.359990966796875,0.010818629525601864,-0.006741655524820089,0.006189080886542797
1746521842045981000,2.36998095703125,0.00956268236041069,-0.007690805941820145,0.006518248002976179
1746521842055970800,2.379970703125,0.012815161608159542,-0.011090540327131748,0.007019784301519394
1746521842065961000,2.3899609375,0.015805624425411224,-0.011342741549015045,0.006450933404266834
1746521842075950800,2.399950927734375,0.01800318993628025,-0.00010847579687833786,-0.0006724258419126272
1746521842085941000,2.40994091796875,0.01613285019993782,0.0034543012734502554,-0.005326565820723772
1746521842095931100,2.41993115234375,0.013914976269006729,0.0006876633269712329,-0.003948703408241272
1746521842105921000,2.429921142578125,0.009184668771922588,-0.004992060363292694,-0.004154832102358341
1746521842115911000,2.439910888671875,0.005749620031565428,-0.009923279285430908,-0.008668137714266777
1746521842125901000,2.449901123046875,0.0040033855475485325,-0.01414891704916954,-0.012163536623120308
1746521842135891000,2.459890869140625,0.00495932437479496,-0.020034831017255783,-0.013295751065015793
1746521842145880800,2.469880859375,0.0043340143747627735,-0.019373033195734024,-0.020091606304049492
1746521842155871000,2.47987109375,0.00038203870644792914,-0.007778797298669815,-0.026671404018998146
1746521842165860900,2.48986083984375,-0.002414813032373786,0.002815523650497198,-0.03283475711941719
1746521842175850800,2.499850830078125,-0.0012899525463581085,0.011463027447462082,-0.03195102885365486
1746521842185841200,2.509841064453125,-0.002385044237598777,0.0035949840676039457,-0.02946576662361622
1746521842195831000,2.5198310546875,-0.004468798171728849,-0.016441959887742996,-0.02387542463839054
1746521842205821000,2.529821044921875,-0.0032703757751733065,-0.024304676800966263,-0.025154273957014084
1746521842215811000,2.53981103515625,0.0009625438833609223,-0.022699324414134026,-0.029710719361901283
1746521842225801000,2.549801025390625,0.001949511468410492,-0.018542129546403885,-0.03492465615272522
1746521842235790800,2.559790771484375,0.00447327783331275,-0.01786765456199646,-0.03794300928711891
1746521842245781000,2.569781005859375,0.0077995662577450275,-0.019159819930791855,-0.035978659987449646
1746521842255771000,2.57977099609375,0.006094999611377716,-0.022845685482025146,-0.0310888160020113
1746521842265761000,2.589760986328125,-0.010440566577017307,-0.030818656086921692,-0.03038041479885578
1746521842275751000,2.5997509765625,-0.020495226606726646,-0.03518400341272354,-0.02357492409646511
1746521842285740800,2.60974072265625,-0.028112933039665222,-0.031347718089818954,-0.020548773929476738
1746521842295731000,2.61973095703125,-0.030170349404215813,-0.026464492082595825,-0.012521224096417427
1746521842305721000,2.62972119140625,-0.03129446879029274,-0.02151421085000038,-0.004655044060200453
1746521842315711000,2.6397109375,-0.03180858492851257,-0.01132996380329132,0.0030113812536001205
1746521842325700000,2.6497001953125,-0.028932901099324226,-0.0025657666847109795,0.01007807906717062
1746521842335690000,2.65968994140625,-0.026030322536826134,-0.0014674791600555182,0.01124640740454197
1746521842345680000,2.669679931640625,-0.025786910206079483,-0.013473009690642357,0.0059906598180532455
1746521842355670000,2.679669921875,-0.02429439127445221,-0.023266777396202087,-0.003960428759455681
1746521842365660000,2.689659912109375,-0.02260514721274376,-0.022225748747587204,-0.01863764226436615
1746521842375650000,2.699650146484375,-0.025341559201478958,-0.018599702045321465,-0.02601921372115612
1746521842385640000,2.709639892578125,-0.028017234057188034,-0.016271032392978668,-0.031636882573366165
1746521842395629800,2.7196298828125,-0.0289847943931818,-0.013050955720245838,-0.03128354251384735
1746521842405620000,2.729619873046875,-0.03322267904877663,-0.009655958041548729,-0.030198300257325172
1746521842415610000,2.739610107421875,-0.03796447068452835,-0.006831093691289425,-0.022617405280470848
1746521842425600000,2.74960009765625,-0.04679817706346512,-0.001956709660589695,-0.021386492997407913
1746521842435590100,2.759590087890625,-0.050872914493083954,0.010629399679601192,-0.027382969856262207
1746521842445580000,2.769580078125,-0.050030287355184555,0.015302449464797974,-0.036532528698444366
1746521842455570000,2.77956982421875,-0.04961017519235611,0.010808570310473442,-0.043588146567344666
1746521842465560000,2.78956005859375,-0.045545659959316254,0.0017767262179404497,-0.04907052963972092
1746521842475550000,2.799550048828125,-0.03954426571726799,-0.008643366396427155,-0.0540471114218235
1746521842485539800,2.809539794921875,-0.03508720174431801,-0.01896950602531433,-0.05901523679494858
1746521842495530000,2.819530029296875,-0.032082509249448776,-0.020231744274497032,-0.06515976041555405
1746521842505519900,2.829519775390625,-0.031128566712141037,-0.009298136457800865,-0.07150287181138992
1746521842515510000,2.839510009765625,-0.04016709700226784,-0.008289160206913948,-0.07301566004753113
1746521842525500400,2.84950048828125,-0.05216410383582115,-0.009452962316572666,-0.06830372661352158
1746521842535490600,2.859490478515625,-0.05746223405003548,-0.011871054768562317,-0.060875579714775085
1746521842545480400,2.86948046875,-0.060105420649051666,-0.010274223983287811,-0.0517587810754776
1746521842555470600,2.879470703125,-0.05154728889465332,-0.003665017895400524,-0.043783362954854965
1746521842565460700,2.889460693359375,-0.04124458506703377,0.010560257360339165,-0.039925239980220795
1746521842575450600,2.89945068359375,-0.03719141334295273,0.019300062209367752,-0.03411790356040001
1746521842585440500,2.9094404296875,-0.036874499171972275,0.014153770171105862,-0.03453388810157776
1746521842595430700,2.9194306640625,-0.043338626623153687,0.0005763325607404113,-0.03633290156722069
1746521842605420500,2.929420654296875,-0.04942980781197548,-0.01423270720988512,-0.037287112325429916
1746521842615410700,2.93941064453125,-0.055978044867515564,-0.02450031228363514,-0.03940834477543831
1746521842625399600,2.949399658203125,-0.05445737764239311,-0.022262724116444588,-0.04254661127924919
1746521842635389400,2.959389404296875,-0.05485308915376663,-0.013940130360424519,-0.037862323224544525
1746521842645379600,2.969379638671875,-0.053728438913822174,-0.00649979105219245,-0.030752748250961304
1746521842655369500,2.979369384765625,-0.0507347546517849,-0.0021415690425783396,-0.016317442059516907
1746521842665359600,2.989359619140625,-0.048481184989213943,0.0012813919456675649,-0.0034929898101836443
1746521842675349500,2.999349609375,-0.04641599953174591,0.008173268288373947,0.0037972480058670044
1746521842685339600,3.009339599609375,-0.04315256327390671,0.012181059457361698,0.005706468131393194
1746521842695329800,3.019329833984375,-0.040599524974823,0.012957165017724037,0.005494317971169949
1746521842705319700,3.029319580078125,-0.03749134764075279,0.007874255999922752,0.0009624166414141655
1746521842715309600,3.0393095703125,-0.03623488172888756,0.005300996825098991,-0.0036902136635035276
1746521842725299700,3.0492998046875,-0.03474484384059906,0.0021757776848971844,-0.010801918804645538
1746521842735289600,3.05928955078125,-0.03823672607541084,0.0028517423197627068,-0.00969961192458868
1746521842745279500,3.069279541015625,-0.0412365086376667,0.004469080362468958,-0.008536609821021557
1746521842755269600,3.07926953125,-0.043495915830135345,0.009964085184037685,-0.007499340921640396
1746521842765259500,3.089259521484375,-0.04047029837965965,0.012254402972757816,-0.0072138505056500435
1746521842775249400,3.09924951171875,-0.038192979991436005,0.009298083372414112,-0.004760787822306156
1746521842785239800,3.10923974609375,-0.03360834717750549,0.005807211622595787,-0.008083348162472248
1746521842795229700,3.119229736328125,-0.02885596826672554,0.009800405241549015,-0.008096985518932343
1746521842805219600,3.129219482421875,-0.031587839126586914,0.015901440754532814,-0.007697778288275003
1746521842815209700,3.139209716796875,-0.037384968250989914,0.022784855216741562,-0.002146751619875431
1746521842825199600,3.14919970703125,-0.03765368089079857,0.022764082998037338,0.006638217717409134
1746521842835189500,3.159189453125,-0.03462158516049385,0.016487404704093933,0.0168413408100605
1746521842845179600,3.1691796875,-0.02774689719080925,0.010350416414439678,0.024985553696751595
1746521842855169500,3.17916943359375,-0.02860671654343605,-0.0002938790712505579,0.030704503878951073
1746521842865159400,3.189159423828125,-0.024002110585570335,-0.009007209911942482,0.0358438715338707
1746521842875149600,3.199149658203125,-0.020105626434087753,-0.007764998357743025,0.0392000749707222
1746521842885139700,3.2091396484375,-0.01413402147591114,-0.002530555473640561,0.037013888359069824
1746521842895129600,3.219129638671875,-0.008783853612840176,0.004657900892198086,0.028429703786969185
1746521842905119700,3.22911962890625,-0.0015240769134834409,0.0074789877980947495,0.019114231690764427
1746521842915109600,3.239109619140625,0.0038425824604928493,0.01328329462558031,0.011334355920553207
1746521842925099500,3.249099609375,0.007067670114338398,0.012595932930707932,0.0051124123856425285
1746521842935088600,3.259088623046875,0.008817549794912338,0.0024298429489135742,0.0017213297542184591
1746521842945078500,3.26907861328125,0.008050292730331421,-0.008003090508282185,-0.0012741938699036837
1746521842955068700,3.279068603515625,0.008438204415142536,-0.007195189129561186,-0.004731969907879829
1746521842965058600,3.28905859375,0.008819835260510445,-0.004421240650117397,-0.00994244497269392
1746521842975048400,3.29904833984375,0.009594998322427273,-0.005944041535258293,-0.012981458567082882
1746521842985038600,3.30903857421875,0.013505849987268448,-0.0064005074091255665,-0.016171658411622047
1746521842995028500,3.319028564453125,0.01511717401444912,-0.006618784740567207,-0.020609624683856964
1746521843005018400,3.329018310546875,0.016102543100714684,-0.011152816005051136,-0.02209087461233139
1746521843015008800,3.3390087890625,0.018132008612155914,-0.018069785088300705,-0.02126944810152054
1746521843024998700,3.34899853515625,0.014235801994800568,-0.01587667129933834,-0.01796366646885872
1746521843034988500,3.358988525390625,0.011479192413389683,-0.004096614196896553,-0.007963652722537518
1746521843044978700,3.368978759765625,0.00902402400970459,-0.000055533600971102715,0.003939079120755196
1746521843054968600,3.378968505859375,0.003275472205132246,0.0012642351211979985,0.01038039568811655
1746521843064958500,3.38895849609375,-0.0008172739762812853,0.0003110896795988083,0.011713840998709202
1746521843074948600,3.398948486328125,-0.002272131387144327,-0.004756010603159666,0.01237308606505394
1746521843084938500,3.4089384765625,0.0036757723428308964,-0.011331621557474136,0.011193038895726204
1746521843094928400,3.418928466796875,0.01406424306333065,-0.012300101108849049,0.005727256648242474
1746521843104918500,3.42891845703125,0.019396690651774406,-0.006547406781464815,0.005182906519621611
1746521843114908700,3.43890869140625,0.01833868771791458,-0.0011021484388038516,-0.0010089508723467588
1746521843124898600,3.448898681640625,0.016904309391975403,0.0001748373033478856,-0.007019173353910446
1746521843134888700,3.458888671875,0.017829764634370804,0.007852989248931408,-0.01369770523160696
1746521843144878600,3.468878662109375,0.016514962539076805,0.017730655148625374,-0.018986742943525314
1746521843154868500,3.478868408203125,0.011305299587547779,0.020299917086958885,-0.02450498938560486
1746521843164858600,3.488858642578125,0.005151267163455486,0.010806813836097717,-0.023932142183184624
1746521843174848500,3.4988486328125,0.0015735565684735775,-0.0029248157516121864,-0.018488341942429543
1746521843184838700,3.508838623046875,-0.0023021416272968054,-0.004578106105327606,-0.013256295584142208
1746521843194828500,3.51882861328125,-0.004765903577208519,-0.00020482216496020555,-0.005248694680631161
1746521843204818400,3.528818359375,-0.001406858442351222,0.013575704768300056,-0.0003500769380480051
1746521843214808600,3.53880859375,0.003947343211621046,0.019632793962955475,0.003264550119638443
1746521843224798700,3.548798828125,0.0038264356553554535,0.015966152772307396,0.005362588446587324
1746521843234788600,3.55878857421875,0.0021763015538454056,-0.0000646878033876419,0.006889177951961756
1746521843244777700,3.56877783203125,-0.003110605990514159,-0.0134689100086689,0.010648762807250023
1746521843254767600,3.578767578125,-0.0002529228222556412,-0.01327546313405037,0.01207028329372406
1746521843264757800,3.5887578125,0.005603900644928217,-0.007024757564067841,0.015532659366726875
1746521843274747600,3.59874755859375,0.010455667972564697,0.004327337257564068,0.011157052591443062
1746521843284737500,3.608737548828125,0.013058640994131565,0.010563394986093044,0.0005286431405693293
1746521843294727700,3.618727783203125,0.009243777953088284,0.01232849434018135,-0.0062910402193665504
1746521843304717600,3.628717529296875,0.00931035727262497,0.009239493869245052,-0.004147461615502834
1746521843314707500,3.63870751953125,0.013086012564599514,0.004802132025361061,-0.002203927608206868
1746521843324697600,3.648697509765625,0.015999777242541313,-0.0005910355248488486,-0.0003626178950071335
1746521843334687700,3.658687744140625,0.014032273553311825,0.005724593531340361,0.004577746614813805
1746521843344677600,3.668677734375,0.010518232360482216,0.013782786205410957,0.010299814864993095
1746521843354667800,3.678667724609375,0.008588302880525589,0.00964067317545414,0.01764838770031929
1746521843364657700,3.68865771484375,0.0061136940494179726,-0.005174226127564907,0.017271550372242928
1746521843374647600,3.6986474609375,0.0047183530405163765,-0.007865185849368572,0.013424420729279518
1746521843384637700,3.7086376953125,0.00645473413169384,-0.005626798607409,0.005743064917623997
1746521843394627600,3.718627685546875,0.009929717518389225,0.004518777132034302,-0.0021849386394023895
1746521843404617500,3.728617431640625,0.008559787645936012,0.015392996370792389,-0.007574643939733505
1746521843414607600,3.738607666015625,0.006605424452573061,0.02970050275325775,-0.007164622191339731
1746521843424597500,3.748597412109375,0.00450632069259882,0.030031800270080566,-0.0019496199674904346
1746521843434587400,3.75858740234375,0.003731575794517994,0.013860070146620274,0.008405491709709167
1746521843444577800,3.768577880859375,0.002869776450097561,0.0036047694738954306,0.01930421218276024
1746521843454567700,3.778567626953125,-0.00182049919385463,-0.0035253064706921577,0.035792723298072815
1746521843464557600,3.7885576171875,-0.0025741735007613897,-0.007735231425613165,0.038554154336452484
1746521843474547700,3.798547607421875,-0.004842829424887896,0.0008273613639175892,0.03196358680725098
1746521843484537600,3.80853759765625,-0.004447083920240402,0.01275965478271246,0.01995113492012024
1746521843494527500,3.818527587890625,-0.00798932183533907,0.018365027382969856,0.009376311674714088
1746521843504517600,3.828517578125,-0.012588334269821644,0.016745824366807938,0.002117866650223732
1746521843514507500,3.838507568359375,-0.009256195276975632,0.01804172806441784,-0.0015747537836432457
1746521843524497000,3.848496826171875,-0.005252131726592779,0.016734115779399872,-0.00575218815356493
1746521843534486800,3.85848681640625,-0.009165608324110508,0.01007748581469059,-0.00043791276402771473
1746521843544477000,3.868476806640625,-0.012334237806499004,-0.004278017673641443,0.012457113713026047
1746521843554465800,3.8784658203125,-0.014466467313468456,-0.016929207369685173,0.023100120946764946
1746521843564456000,3.8884560546875,-0.012665637768805027,-0.028714226558804512,0.02968904934823513
1746521843574446000,3.898446044921875,-0.011667290702462196,-0.031177811324596405,0.02218559943139553
1746521843584436000,3.90843603515625,-0.013127768412232399,-0.020935559645295143,0.013275994919240475
1746521843594425900,3.91842578125,-0.015283206477761269,-0.00415210472419858,0.002887552138417959
1746521843604416000,3.928416015625,-0.01854557916522026,0.003442698158323765,-0.004807651042938232
1746521843614406000,3.938406005859375,-0.01978975534439087,-0.0008896776707842946,-0.011543827131390572
1746521843624395800,3.948395751953125,-0.022647062316536903,-0.002410608809441328,-0.018071234226226807
1746521843634386000,3.958385986328125,-0.020444517955183983,-0.0012767994776368141,-0.022087620571255684
1746521843644375800,3.968375732421875,-0.017969641834497452,0.00427003251388669,-0.02976284921169281
1746521843654365700,3.97836572265625,-0.017900172621011734,0.005185418296605349,-0.04048866778612137
1746521843664356000,3.988356201171875,-0.023994283750653267,-0.00553114153444767,-0.05211842805147171
1746521843674346000,3.998345947265625,-0.028068674728274345,-0.012146271765232086,-0.05372427776455879
1746521843684335900,4.0083359375,-0.02730727754533291,-0.014149768278002739,-0.04763443022966385
1746521843694326000,4.018325927734375,-0.02366902120411396,-0.018265314400196075,-0.03499274328351021
1746521843704316000,4.02831591796875,-0.02391429804265499,-0.019241362810134888,-0.02134004607796669
1746521843714305800,4.038305908203125,-0.021886587142944336,-0.018536262214183807,-0.013278093189001083
1746521843724296000,4.0482958984375,-0.01902475394308567,-0.016044609248638153,-0.008772557601332664
1746521843734285800,4.058285888671875,-0.02130916714668274,-0.012191218324005604,-0.00668023806065321
1746521843744275700,4.068275634765625,-0.023494025692343712,-0.019636884331703186,-0.0028697869274765253
1746521843754265900,4.078265869140625,-0.024134540930390358,-0.03397956117987633,0.00236661359667778
1746521843764256000,4.088256103515625,-0.022053280845284462,-0.035297293215990067,0.007715838961303234
1746521843774246000,4.098245849609375,-0.017269976437091827,-0.021461373195052147,0.007170956581830978
1746521843784236000,4.108236083984375,-0.015831604599952698,-0.009582611732184887,0.00558557640761137
1746521843794226000,4.118225830078125,-0.015197317115962505,0.0006959741003811359,0.0005254307761788368
1746521843804215800,4.1282158203125,-0.013502747751772404,0.0056433286517858505,0.0012111947871744633
1746521843814206000,4.1382060546875,-0.014754108153283596,0.006633006036281586,0.004707830958068371
1746521843824195800,4.14819580078125,-0.015401256270706654,-0.007382678333669901,0.009203513152897358
1746521843834185700,4.158185791015625,-0.017194610089063644,-0.018848812207579613,0.011216564103960991
1746521843844176000,4.16817578125,-0.014649692922830582,-0.026218578219413757,0.013248822651803493
1746521843854165800,4.178165771484375,-0.012665435671806335,-0.025828059762716293,0.006437406875193119
1746521843864155600,4.18815576171875,-0.007821944542229176,-0.015260637737810612,-0.0029907156713306904
1746521843874144800,4.198144775390625,-0.005762302782386541,-0.00018228718545287848,-0.012490556575357914
1746521843884134700,4.208134765625,-0.010121631436049938,0.010541196912527084,-0.016851749271154404
1746521843894125000,4.218125,-0.012850734405219555,0.008463242091238499,-0.011965334415435791
1746521843904115000,4.228114990234375,-0.015456105582416058,0.005009123124182224,0.00047269253991544247
1746521843914104800,4.238104736328125,-0.016456913203001022,-0.000830931356176734,0.013071722351014614
1746521843924095000,4.248094970703125,-0.01729261316359043,-0.0027505378238856792,0.022791462019085884
1746521843934084900,4.2580849609375,-0.01294270996004343,-0.0030646342784166336,0.022989019751548767
1746521843944074800,4.26807470703125,-0.008415868505835533,0.00022197270300239325,0.01392095535993576
1746521843954065000,4.27806494140625,-0.005094179883599281,0.002187492558732629,0.004683523438870907
1746521843964054800,4.2880546875,-0.0030518018174916506,-0.0010383944027125835,-0.0022279121913015842
1746521843974044700,4.298044677734375,-0.0034081842750310898,-0.009991730563342571,-0.00591668114066124
1746521843984034800,4.308034912109375,0.0014163980958983302,-0.014539876952767372,-0.009715147316455841
1746521843994025000,4.31802490234375,0.0048386044800281525,-0.00844037625938654,-0.013596825301647186
1746521844004014800,4.328014892578125,0.00411928491666913,0.0051673115231096745,-0.013749424368143082
1746521844014005000,4.3380048828125,0.005240547005087137,0.023184821009635925,-0.009609549306333065
1746521844023995000,4.347994873046875,0.002416531089693308,0.027340950444340706,-0.004285624250769615
1746521844033985000,4.357985107421875,0.0025425313506275415,0.02104412391781807,0.008314111270010471
1746521844043975000,4.367974853515625,0.005393445026129484,0.011268723756074905,0.017406409606337547
1746521844053964800,4.37796484375,0.008795926347374916,0.007698852568864822,0.02445964142680168
1746521844063955000,4.387954833984375,0.013725437223911285,-0.004219326190650463,0.02390090934932232
1746521844073944800,4.39794482421875,0.018366847187280655,-0.011069187894463539,0.018032658845186234
1746521844083934700,4.407934814453125,0.017949795350432396,-0.014705201610922813,0.013669602572917938
1746521844093925000,4.417925048828125,0.015778806060552597,-0.019919566810131073,0.006640954874455929
1746521844103915000,4.4279150390625,0.015660827979445457,-0.02163996919989586,-0.0026361665222793818
1746521844113905000,4.43790478515625,0.017580842599272728,-0.01640547439455986,-0.008839750662446022
1746521844123895000,4.44789501953125,0.014864685945212841,-0.01844572275876999,-0.008539877831935883
1746521844133885000,4.457885009765625,0.013136736117303371,-0.01766754314303398,-0.004327516071498394
1746521844143874800,4.467874755859375,0.014831838198006153,-0.007404252886772156,-0.0026912696193903685
1746521844153865000,4.477864990234375,0.014195485040545464,0.004486813675612211,-0.0026979439426213503
1746521844163854800,4.487854736328125,0.009513648226857185,0.009187559597194195,-0.004476669244468212
1746521844173844700,4.4978447265625,0.010252993553876877,0.010211067274212837,-0.003843079088255763
1746521844183835000,4.5078349609375,0.01575401797890663,0.012705650180578232,0.0003521987237036228
1746521844193823700,4.51782373046875,0.013444395735859871,0.011817012913525105,0.004634931683540344
1746521844203814000,4.52781396484375,0.011107205413281918,0.0020762355998158455,0.012319482862949371
1746521844213803800,4.5378037109375,0.009505730122327805,-0.012184148654341698,0.014910602942109108
1746521844223794000,4.5477939453125,0.01579371839761734,-0.013383104465901852,0.010867658071219921
1746521844233784000,4.5577841796875,0.019056644290685654,-0.008490240201354027,0.0024911845102906227
1746521844243774000,4.56777392578125,0.017206013202667236,-0.008239902555942535,0.00035852519795298576
1746521844253763800,4.577763916015625,0.012430446222424507,0.0008200169540941715,-0.0040571726858615875
1746521844263754000,4.58775390625,0.01779884658753872,0.012949383817613125,-0.007728073745965958
1746521844273744000,4.597743896484375,0.019449902698397636,0.022166475653648376,-0.009567833505570889
1746521844283733800,4.607733642578125,0.010992767289280891,0.02705177664756775,-0.003044953802600503
1746521844293724000,4.617723876953125,0.009524905122816563,0.024257216602563858,0.0031362350564450026
1746521844303713800,4.6277138671875,0.008902258239686489,0.011861798353493214,0.008715291507542133
1746521844313703700,4.63770361328125,0.012093022465705872,-0.0013669709442183375,0.015262729488313198
1746521844323694000,4.647694091796875,0.016991375014185905,-0.012684340588748455,0.012360682711005211
1746521844333684000,4.65768408203125,0.015081006102263927,-0.006414465606212616,0.006333868019282818
1746521844343673900,4.667673828125,0.013195754028856754,0.009400184266269207,-0.003906252793967724
1746521844353664000,4.6776640625,0.015822865068912506,0.020408904179930687,-0.007508549839258194
1746521844363654000,4.68765380859375,0.01633499003946781,0.02746601402759552,-0.004420881159603596
1746521844373643800,4.697643798828125,0.012357054278254509,0.019959725439548492,0.0044331783428788185
1746521844383634000,4.707634033203125,0.011323747225105762,0.0000025281915441155434,0.011999217793345451
1746521844393623800,4.717623779296875,0.008878231048583984,-0.009352989494800568,0.019455648958683014
1746521844403613700,4.72761376953125,0.006923736073076725,-0.013933093287050724,0.015370361506938934
1746521844413603800,4.737603759765625,0.007720605935901403,-0.012884552590548992,0.006608318071812391
1746521844423594000,4.747593994140625,0.006031895522028208,-0.005142743233591318,-0.0016783736646175385
1746521844433583900,4.757583984375,0.005099665839225054,0.00582447275519371,-0.008310193195939064
1746521844443574000,4.767573974609375,0.002875660080462694,0.016676321625709534,-0.017114073038101196
1746521844453564000,4.77756396484375,0.004302783869206905,0.02044213004410267,-0.022560082376003265
1746521844463553800,4.7875537109375,0.007827211171388626,0.012019351124763489,-0.02878548763692379
1746521844473544000,4.7975439453125,0.006844095420092344,0.0025067534297704697,-0.028615295886993408
1746521844483533800,4.807533935546875,0.004258166067302227,-0.010039398446679115,-0.02488207444548607
1746521844493523700,4.817523681640625,0.007073516957461834,-0.016066450625658035,-0.016144227236509323
1746521844503513900,4.827513916015625,0.010250401683151722,-0.017581788823008537,-0.004842305555939674
1746521844513502700,4.837502685546875,0.007112112827599049,-0.017185881733894348,0.0010318616405129433
1746521844523493600,4.84749365234375,0.0032729001250118017,-0.011147163808345795,0.0054737478494644165
1746521844533483500,4.8574833984375,-0.0004767515347339213,-0.006187673658132553,0.00498972088098526
1746521844543473400,4.867473388671875,-0.005596945062279701,-0.00580817274749279,0.00345467496663332
1746521844553463600,4.877463623046875,-0.00832397025078535,-0.006884302012622356,-0.002666841959580779
1746521844563453400,4.887453369140625,-0.008906669914722443,-0.004991326946765184,-0.007723919115960598
1746521844573443300,4.897443359375,-0.005641999654471874,-0.0038107370492070913,-0.013992838561534882
1746521844583433500,4.90743359375,-0.0027700464706867933,0.0015259713400155306,-0.01638169400393963
1746521844593423600,4.917423583984375,-0.0038920363876968622,0.008425422944128513,-0.00731735909357667
1746521844603413500,4.92741357421875,-0.006845215801149607,0.010210007429122925,0.002558973850682378
1746521844613403600,4.937403564453125,-0.006124603096395731,0.00657751364633441,0.015064176172018051
1746521844623393500,4.9473935546875,-0.008792824111878872,-0.0033052111975848675,0.0232363510876894
1746521844633383400,4.957383544921875,-0.010864386335015297,-0.0059895762242376804,0.0260017067193985
1746521844643373600,4.96737353515625,-0.014470040798187256,-0.0048372261226177216,0.026093054562807083
1746521844653363500,4.977363525390625,-0.018100734800100327,-0.0038057754281908274,0.019701849669218063
1746521844663353300,4.987353271484375,-0.016088983044028282,-0.003638528985902667,0.006482717581093311
1746521844673343500,4.997343505859375,-0.01592293195426464,-0.004656191915273666,-0.007619207724928856
1746521844683333400,5.00733349609375,-0.014148466289043427,-0.012379358522593975,-0.013529826886951923
1746521844693323500,5.017323486328125,-0.011054242961108685,-0.015801364555954933,-0.020413348451256752
1746521844703313700,5.027313720703125,-0.008330628275871277,-0.007483779452741146,-0.01937711238861084
1746521844713303600,5.037303466796875,-0.006050326395779848,0.008936315774917603,-0.022830650210380554
1746521844723293400,5.04729345703125,-0.003678781446069479,0.0189221054315567,-0.021198663860559464
1746521844733283600,5.05728369140625,-0.0025354737881571054,0.014669148251414299,-0.015180099755525589
1746521844743273500,5.0672734375,-0.0020529089961200953,0.0029139560647308826,-0.00403690105304122
1746521844753263400,5.077263427734375,-0.005283323582261801,-0.017003558576107025,0.010379321873188019
1746521844763253500,5.08725341796875,-0.0037828986532986164,-0.031505536288022995,0.02332308515906334
1746521844773243400,5.097243408203125,-0.0008652430260553956,-0.02909575216472149,0.02964857593178749
1746521844783233300,5.1072333984375,-0.0032240047585219145,-0.015216421335935593,0.024095619097352028
1746521844793223700,5.1172236328125,-0.006368542090058327,0.0029641278088092804,0.014513581991195679
1746521844803213600,5.127213623046875,-0.006442843936383724,0.018141215667128563,0.005427941679954529
1746521844813203500,5.137203369140625,-0.0014675138518214226,0.023134490475058556,0.0030210635159164667
1746521844823193600,5.147193603515625,0.0025565223768353462,0.022875897586345673,0.0027009514160454273
1746521844833183500,5.15718359375,0.00496960012242198,0.01577845960855484,0.008326259441673756
1746521844843172600,5.167172607421875,0.006859645247459412,0.0040277945809066296,0.013663501478731632
1746521844853162500,5.17716259765625,0.005990675650537014,-0.0076932054944336414,0.015670161694288254
1746521844863152400,5.18715234375,0.003958151210099459,-0.010560630820691586,0.011839203536510468
1746521844873142500,5.197142578125,0.0073495241813361645,-0.009938406758010387,0.006160060875117779
1746521844883132400,5.20713232421875,0.006560429465025663,0.0009027891792356968,-0.0006038357969373465
1746521844893122600,5.21712255859375,0.0061989943496882915,0.008734550327062607,-0.008264832198619843
1746521844903112400,5.227112548828125,0.006108713336288929,0.010997437871992588,-0.010060068219900131
1746521844913102300,5.237102294921875,0.00576695054769516,0.009561576880514622,-0.009972852654755116
1746521844923092500,5.247092529296875,0.004378112033009529,0.0067016081884503365,-0.005894221365451813
1746521844933082600,5.25708251953125,0.005861623678356409,0.009600665420293808,-0.005184061825275421
1746521844943072500,5.267072509765625,0.007480026688426733,0.010588964447379112,-0.004618672654032707
1746521844953062700,5.277062744140625,0.010320975445210934,0.012275708839297295,-0.002540800953283906
1746521844963052500,5.287052490234375,0.005617832764983177,0.004150670487433672,0.007667894475162029
1746521844973042400,5.29704248046875,0.00777706503868103,0.0018315432826057076,0.00887120608240366
1746521844983032600,5.307032470703125,0.007396499626338482,0.005619090516120195,0.009259228594601154
1746521844993022500,5.3170224609375,0.0037748939357697964,0.010131243616342545,0.005994094535708427
1746521845003012400,5.327012451171875,0.0011069390457123518,0.009991161525249481,-0.0003639361821115017
1746521845013002500,5.33700244140625,0.0005301819182932377,0.006220534443855286,-0.00857709813863039
1746521845022992600,5.34699267578125,0.0020551078487187624,0.0029991744086146355,-0.013791301287710667
1746521845032982500,5.356982421875,-0.0005803758976981044,-0.0010675768135115504,-0.018360987305641174
1746521845042972700,5.36697265625,-0.004354341421276331,-0.003215149976313114,-0.025998400524258614
1746521845052962600,5.376962646484375,-0.0034310626797378063,0.0014704735949635506,-0.03118404746055603
1746521845062952400,5.386952392578125,0.0012760746758431196,0.009539850987493992,-0.03389940410852432
1746521845072942600,5.396942626953125,0.0024699177592992783,0.02055489644408226,-0.03230153024196625
1746521845082932500,5.406932373046875,0.001364972209557891,0.02283908985555172,-0.028791218996047974
1746521845092922400,5.41692236328125,-0.0014650506200268865,0.014841178432106972,-0.024389471858739853
1746521845102912500,5.42691259765625,-0.003006754443049431,-0.002480287104845047,-0.017350204288959503
1746521845112902400,5.43690234375,-0.004475868307054043,-0.008157835341989994,-0.003271282883360982
1746521845122892500,5.446892578125,0.00034951322595588863,-0.0034211366437375546,0.005693449638783932
1746521845132882700,5.456882568359375,-0.0031372494995594025,0.00004785170312970877,0.011405009776353836
1746521845142872600,5.46687255859375,-0.0105597460642457,0.005695884115993977,0.014537153765559196
1746521845152862500,5.476862548828125,-0.01355846505612135,0.009220310486853123,0.01106998324394226
1746521845162852600,5.4868525390625,-0.011005825363099575,0.011446979828178883,0.0067474073730409145
1746521845172842500,5.496842529296875,-0.007380146067589521,0.00726613774895668,0.0049519287422299385
1746521845182831600,5.50683154296875,-0.0031204200349748135,-0.0007758092251606286,-0.0039880359545350075
1746521845192821500,5.516821533203125,-0.00079229602124542,-0.0057275365106761456,-0.012190132401883602
1746521845202811400,5.526811279296875,-0.004558005835860968,-0.011869318783283234,-0.017572646960616112
1746521845212801500,5.536801513671875,-0.007128361612558365,-0.01913861557841301,-0.018815580755472183
1746521845222791400,5.54679150390625,-0.0074261026456952095,-0.021108556538820267,-0.012193630449473858
1746521845232781300,5.55678125,-0.008975470438599586,-0.020122872665524483,-0.010269327089190483
1746521845242771700,5.566771728515625,-0.011999756097793579,-0.01174749806523323,-0.013287754729390144
1746521845252761600,5.57676171875,-0.015178174711763859,0.00011172587983310223,-0.016003001481294632
1746521845262751500,5.58675146484375,-0.020765753462910652,0.019375966861844063,-0.016623515635728836
1746521845272741600,5.59674169921875,-0.024013254791498184,0.034937821328639984,-0.007328431122004986
1746521845282731500,5.6067314453125,-0.022328805178403854,0.04068039730191231,-0.0016532349400222301
1746521845292721400,5.616721435546875,-0.012609855271875858,0.039303652942180634,0.0019410569220781326
1746521845302711600,5.626711669921875,0.002424222184345126,0.033832188695669174,-0.005759740248322487
1746521845312701400,5.636701416015625,0.021081386134028435,0.01863906905055046,-0.014116989448666573
1746521845322691300,5.64669140625,0.026441795751452446,0.00115275289863348,-0.019920283928513527
1746521845332681500,5.656681396484375,0.011843803338706493,0.003229966387152672,-0.01785125769674778
1746521845342671400,5.66667138671875,-0.014311901293694973,0.01758813112974167,-0.011769662611186504
1746521845352661500,5.67666162109375,-0.032542794942855835,0.023427322506904602,-0.009000039659440517
1746521845362651600,5.686651611328125,-0.040130939334630966,0.029079880565404892,-0.01226134691387415
1746521845372641500,5.6966416015625,-0.0455934964120388,0.04398394376039505,-0.028845900669693947
1746521845382631400,5.70663134765625,-0.03486042469739914,0.05107274651527405,-0.04018990322947502
1746521845392621600,5.71662158203125,-0.015620884485542774,0.045988138765096664,-0.04639948531985283
1746521845402611500,5.726611572265625,0.005127804819494486,0.040038902312517166,-0.046557407826185226
1746521845412601300,5.736601318359375,0.01392814889550209,0.04394587129354477,-0.04295334592461586
1746521845422591500,5.746591552734375,0.007939498871564865,0.037476252764463425,-0.03668905794620514
1746521845432581400,5.756581298828125,0.0009532475378364325,0.0281387809664011,-0.02437915839254856
1746521845442571500,5.766571533203125,-0.0021338886581361294,0.01935567520558834,-0.011663363315165043
1746521845452561700,5.776561767578125,-0.003380053211003542,0.012148203328251839,0.003001340664923191
1746521845462551600,5.786551513671875,-0.001039134687744081,0.015667039901018143,0.01565934531390667
1746521845472541700,5.796541748046875,-0.004761934746056795,0.027699682861566544,0.027746688574552536
1746521845482531600,5.806531494140625,-0.010877883993089199,0.0202697291970253,0.0349486768245697
1746521845492521500,5.816521484375,-0.017474424093961716,0.006191296968609095,0.039189957082271576
1746521845502511600,5.82651171875,-0.0125989755615592,-0.0051995753310620785,0.0400051511824131
1746521845512500500,5.83650048828125,0.0066044628620147705,-0.012933134101331234,0.03341986984014511
1746521845522489600,5.846489501953125,0.022170105949044228,-0.01637233980000019,0.01860790140926838
1746521845532479500,5.8564794921875,0.029943354427814484,-0.018602890893816948,-0.007611630484461784
1746521845542469400,5.866469482421875,0.026939574629068375,-0.006913212593644857,-0.024032948538661003
1746521845552459500,5.87645947265625,0.019070493057370186,0.010574530810117722,-0.025396905839443207
1746521845562449400,5.886449462890625,0.010933736339211464,0.023663699626922607,-0.015441477298736572
1746521845572439600,5.896439453125,-0.0022037995513528585,0.028429005295038223,0.0035240077413618565
1746521845582429400,5.906429443359375,-0.013145930133759975,0.011366398073732853,0.028299661353230476
1746521845592419300,5.91641943359375,-0.010405321605503559,-0.0005118874250911176,0.04626958444714546
1746521845602409500,5.926409423828125,0.006570732221007347,-0.013142195530235767,0.055430326610803604
1746521845612399600,5.936399658203125,0.02906039170920849,-0.05523728206753731,0.0773802101612091
1746521845622389500,5.946389404296875,0.046732865273952484,-0.04663047939538956,0.0845201388001442
1746521845632379600,5.956379638671875,0.04191676899790764,-0.021771684288978577,0.05453928932547569
1746521845642369500,5.96636962890625,0.02056674100458622,-0.0032888150308281183,0.0034398839343339205
1746521845652359400,5.976359375,0.009724694304168224,0.014820626005530357,-0.042867451906204224
1746521845662349600,5.986349609375,0.010259723290801048,0.01359796803444624,-0.07050520181655884
1746521845672339500,5.99633935546875,0.011382647790014744,-0.017243240028619766,-0.0810895636677742
1746521845682329300,6.006329345703125,0.014631704427301884,-0.036252085119485855,-0.08144616335630417
1746521845692319500,6.016319580078125,0.01918986812233925,-0.03675500303506851,-0.07875002920627594
1746521845702309400,6.026309326171875,0.022361958399415016,-0.025473851710557938,-0.07773909717798233
1746521845712299300,6.03629931640625,0.021323390305042267,-0.004866674542427063,-0.08167380094528198
1746521845722289700,6.04628955078125,0.011066225357353687,0.014878268353641033,-0.0827779471874237
1746521845732279600,6.056279541015625,-0.00147555535659194,0.027821332216262817,-0.07702133059501648
1746521845742269400,6.06626953125,-0.017753593623638153,0.030536958947777748,-0.05984074994921684
1746521845752259600,6.076259521484375,-0.01661771722137928,0.0232374407351017,-0.03570697829127312
1746521845762249500,6.08624951171875,0.004692897666245699,0.014086287468671799,0.0007769970688968897
1746521845772239400,6.0962392578125,0.022718582302331924,0.0037602984812110662,0.03915541619062424
1746521845782229500,6.1062294921875,0.03157918527722359,-0.009374146349728107,0.06982064247131348
1746521845792219400,6.116219482421875,0.025767523795366287,-0.013141022995114326,0.08788494020700455
1746521845802209300,6.126209228515625,0.014461340382695198,-0.017151478677988052,0.0941481664776802
1746521845812199400,6.136199462890625,0.0033323727548122406,-0.02404591254889965,0.08138963580131531
1746521845822189600,6.146189453125,0.006912460085004568,-0.019757423549890518,0.05786512792110443
1746521845832179500,6.156179443359375,0.01822909712791443,-0.004239412024617195,0.027502210810780525
1746521845842169600,6.166169677734375,0.017179546877741814,0.006939738988876343,0.0012714071199297905
1746521845852158500,6.176158447265625,0.007310096640139818,-0.0076740337535738945,-0.018312348052859306
1746521845862148600,6.186148681640625,0.0015318362275138497,-0.024923328310251236,-0.031608711928129196
1746521845872138500,6.196138427734375,0.006112290546298027,-0.024977117776870728,-0.03461907058954239
1746521845882128400,6.20612841796875,0.013888188637793064,-0.014064016751945019,-0.03786972165107727
1746521845892118500,6.216118408203125,0.007370057515799999,-0.006169405300170183,-0.030618617311120033
1746521845902108400,6.2261083984375,-0.001554993912577629,-0.0029022390954196453,-0.013950955122709274
1746521845912098300,6.236098388671875,0.0015400205738842487,-0.007753821089863777,0.005969563964754343
1746521845922088400,6.24608837890625,0.014329052530229092,-0.02069918066263199,0.029240265488624573
1746521845932078300,6.256078369140625,0.02018582448363304,-0.02812599390745163,0.04210304096341133
1746521845942068500,6.266068359375,0.017332514747977257,-0.026963524520397186,0.04551641643047333
1746521845952058600,6.27605859375,0.004529236350208521,-0.017117224633693695,0.03713422268629074
1746521845962048500,6.286048583984375,0.00007909428677521646,-0.018250931054353714,0.024041056632995605
1746521845972038400,6.296038330078125,-0.0008152790833264589,-0.025594070553779602,0.010649537667632103
1746521845982028500,6.306028564453125,0.0026055513881146908,-0.029633820056915283,-0.000378612894564867
1746521845992018400,6.316018310546875,0.006381322164088488,-0.027723049744963646,-0.013597648590803146
1746521846002008300,6.32600830078125,0.00959655549377203,-0.025262022390961647,-0.023626847192645073
1746521846011998500,6.33599853515625,0.0020010655280202627,-0.02087090164422989,-0.028398506343364716
1746521846021988400,6.34598828125,0.001989880111068487,-0.010935445316135883,-0.03631475195288658
1746521846031978500,6.355978515625,0.0069920639507472515,-0.000651598849799484,-0.03856384754180908
1746521846041968600,6.36596875,0.0069217560812830925,0.0005263172788545489,-0.03628364950418472
1746521846051958500,6.37595849609375,0.0034148660488426685,-0.01579347625374794,-0.027177169919013977
1746521846061948400,6.385948486328125,0.002928306581452489,-0.02741231583058834,-0.016315201297402382
1746521846071938600,6.3959384765625,0.008068363182246685,-0.02548455446958542,-0.011009580455720425
1746521846081928400,6.405928466796875,0.01329801231622696,-0.01905142143368721,-0.006646257825195789
1746521846091918600,6.415918701171875,0.0064943707548081875,-0.025279391556978226,-0.0019275159575045109
1746521846101908500,6.425908447265625,0.003031462198123336,-0.03320682421326637,-0.000006045214831829071
1746521846111898400,6.4358984375,0.007718813139945269,-0.012817547656595707,0.0027698962949216366
1746521846121888500,6.445888427734375,0.013346871361136436,0.011543718166649342,0.0004428259562700987
1746521846131878400,6.45587841796875,0.007024488411843777,0.02331761084496975,0.003968647215515375
1746521846141868300,6.465868408203125,-0.0068199546076357365,0.014485769905149937,0.014957649633288383
1746521846151858700,6.475858642578125,-0.016152486205101013,-0.015663843601942062,0.034083906561136246
1746521846161848600,6.4858486328125,-0.012573464773595333,-0.03726660832762718,0.05166449770331383
1746521846171837700,6.495837646484375,0.0025179653894156218,-0.02594112977385521,0.04782465845346451
1746521846181827600,6.50582763671875,0.0126880444586277,-0.0076414854265749454,0.026704460382461548
1746521846191817500,6.5158173828125,0.002930021146312356,0.005164491944015026,0.002597103826701641
1746521846201807600,6.5258076171875,-0.006827534642070532,-0.003814621828496456,-0.011085685342550278
1746521846211797500,6.535797607421875,-0.007584593258798122,-0.038713064044713974,-0.018247583881020546
1746521846221787400,6.545787353515625,-0.0015834260266274214,-0.06579528748989105,-0.029974548146128654
1746521846231777500,6.555777587890625,0.00803846400231123,-0.0648539587855339,-0.0460735484957695
1746521846241767400,6.565767333984375,0.012999134138226509,-0.036578912287950516,-0.0619497187435627
1746521846251757300,6.57575732421875,0.010205517522990704,-0.007231998257339001,-0.06949877738952637
1746521846261747500,6.58574755859375,0.0014112270437180996,0.011835169978439808,-0.06669340282678604
1746521846271737600,6.595737548828125,-0.004983237478882074,0.011675967834889889,-0.053910739719867706
1746521846281727500,6.6057275390625,-0.0013301791623234749,0.005736585706472397,-0.036813512444496155
1746521846291717600,6.615717529296875,0.004035979975014925,-0.00923847034573555,-0.020756179466843605
1746521846301707500,6.62570751953125,0.005287132691591978,-0.01857871003448963,-0.004620618186891079
1746521846311697400,6.635697509765625,-0.0005363547243177891,-0.01663173735141754,0.014890046790242195
1746521846321687600,6.6456875,-0.00312201795168221,-0.003416066989302635,0.03225545585155487
1746521846331677400,6.655677490234375,-0.004859153646975756,0.0047867982648313046,0.039752401411533356
1746521846341667300,6.665667236328125,-0.004357413854449987,0.005257378797978163,0.04278760403394699
1746521846351657500,6.675657470703125,-0.004050948191434145,-0.0009048107312992215,0.046734828501939774
1746521846361647400,6.6856474609375,-0.003802741877734661,-0.012850952334702015,0.0470898263156414
1746521846371637500,6.695637451171875,-0.0011961308773607016,-0.021250559017062187,0.04219204932451248
1746521846381627600,6.705627685546875,0.0005791322910226882,-0.02144790068268776,0.030289318412542343
1746521846391617500,6.715617431640625,-0.0007878036703914404,-0.009435012005269527,0.012223076075315475
1746521846401607400,6.725607421875,-0.002298348816111684,0.004665094427764416,-0.007659018971025944
1746521846411597600,6.73559765625,-0.00541792344301939,0.011889239773154259,-0.02306351810693741
1746521846421587500,6.74558740234375,-0.005666662938892841,0.007104604505002499,-0.03246128186583519
1746521846431577300,6.755577392578125,-0.003245849395170808,-0.004817035980522633,-0.0331217460334301
1746521846441567500,6.7655673828125,-0.0002881426189560443,-0.01376978401094675,-0.031234363093972206
1746521846451557400,6.775557373046875,0.00413920683786273,-0.009795980527997017,-0.026878301054239273
1746521846461547300,6.78554736328125,0.0006896141567267478,-0.003023028839379549,-0.01722673885524273
1746521846471537400,6.795537353515625,-0.003772914409637451,0.005104878451675177,0.0016291358042508364
1746521846481527600,6.805527587890625,-0.008473127149045467,0.007684948854148388,0.018949003890156746
1746521846491516400,6.815516357421875,-0.009376244619488716,0.0016651973128318787,0.03374426066875458
1746521846501506600,6.825506591796875,-0.011090788058936596,-0.005345840472728014,0.043169453740119934
1746521846511496400,6.835496337890625,-0.011591553688049316,-0.011042339727282524,0.04464302211999893
1746521846521486800,6.84548681640625,-0.010001113638281822,-0.011633294634521008,0.03686419129371643
1746521846531476700,6.855476806640625,-0.006497744470834732,-0.007622945122420788,0.02322431281208992
1746521846541466600,6.865466552734375,-0.0017485292628407478,-0.007756103295832872,0.005894058384001255
1746521846551456800,6.875456787109375,-0.0037067641969770193,-0.004972146824002266,-0.010542260482907295
1746521846561446700,6.88544677734375,-0.004490799270570278,-0.007263530511409044,-0.016489898785948753
1746521846571436500,6.8954365234375,-0.0050521413795650005,-0.00677159009501338,-0.017894957214593887
1746521846581426700,6.9054267578125,-0.0038382727652788162,0.004688258282840252,-0.00906817615032196
1746521846591416600,6.91541650390625,-0.00502591161057353,0.01833503507077694,0.000005107372999191284
1746521846601406700,6.92540673828125,-0.0076669687405228615,0.024027807638049126,0.0107429726049304
1746521846611396900,6.93539697265625,-0.00998899806290865,0.022367224097251892,0.02066248282790184
1746521846621386800,6.94538671875,-0.014421563595533371,0.018875017762184143,0.028736121952533722
1746521846631376600,6.955376708984375,-0.013899695128202438,0.010010586120188236,0.03486572578549385
1746521846641366800,6.96536669921875,-0.015853922814130783,0.005835015792399645,0.03685936704277992
1746521846651356700,6.975356689453125,-0.018284043297171593,0.007093471474945545,0.03607728332281113
1746521846661346600,6.9853466796875,-0.01964997872710228,0.0016718085389584303,0.03230252116918564
1746521846671336700,6.995336669921875,-0.01521998643875122,-0.0054244534112513065,0.03053494170308113
1746521846681326600,7.00532666015625,-0.009183399379253387,-0.005974129773676395,0.022561702877283096
1746521846691316500,7.01531640625,-0.0040192315354943275,-0.002653483534231782,0.013581312261521816
1746521846701307000,7.025306884765625,-0.0034738159738481045,0.0011244767811149359,0.002418671967461705
1746521846711296800,7.035296875,-0.006527922581881285,0.011084957048296928,-0.00030506099574267864
1746521846721286700,7.04528662109375,-0.007450441364198923,0.010971772484481335,0.004486232064664364
1746521846731276800,7.05527685546875,-0.011359123513102531,0.009751987643539906,0.005018799100071192
1746521846741266700,7.0652666015625,-0.013873946852982044,0.004250695928931236,0.010539531707763672
1746521846751256800,7.0752568359375,-0.01223849318921566,-0.005083296913653612,0.01663118600845337
1746521846761246700,7.085246826171875,-0.008619523607194424,-0.007167486473917961,0.021918093785643578
1746521846771236600,7.095236572265625,-0.005441573448479176,-0.004915784113109112,0.022487211972475052
1746521846781226800,7.105226806640625,-0.006688998080790043,-0.005286495666950941,0.0233753751963377
1746521846791216600,7.115216552734375,-0.007484088651835918,0.0019274140940979123,0.01885162852704525
1746521846801206800,7.125206787109375,-0.0019284680020064116,0.005249441135674715,0.01353356335312128
1746521846811195600,7.135195556640625,-0.0014569327468052506,-0.0023348103277385235,0.004515371285378933
1746521846821185800,7.145185791015625,0.0021356716752052307,-0.008615342900156975,-0.005469352472573519
1746521846831175700,7.15517578125,0.003994902595877647,-0.0017128112958744168,-0.016392700374126434
1746521846841165800,7.165165771484375,-0.000540194334462285,0.009244765155017376,-0.020246826112270355
1746521846851155700,7.17515576171875,-0.006572650745511055,0.010849113576114178,-0.01123032532632351
1746521846861145900,7.185145751953125,-0.01144756656140089,-0.0016022296622395515,0.00043085752986371517
1746521846871135700,7.1951357421875,-0.01688986085355282,-0.015664201229810715,0.012965008616447449
1746521846881125600,7.205125732421875,-0.01373827550560236,-0.019387032836675644,0.020290832966566086
1746521846891115800,7.21511572265625,-0.00759817473590374,-0.009951459243893623,0.024065783247351646
1746521846901105700,7.225105712890625,-0.004633277654647827,0.001231154310517013,0.023709720000624657
1746521846911095600,7.235095458984375,-0.002721291035413742,-0.0047179716639220715,0.02089560590684414
1746521846921086000,7.2450859375,-0.0017140835989266634,-0.014786584302783012,0.010333241894841194
1746521846931075800,7.255075927734375,0.005331289488822222,-0.015946228057146072,-0.0067676822654902935
1746521846941065700,7.265065673828125,0.006365927401930094,-0.01731855794787407,-0.015694864094257355
1746521846951056000,7.275055908203125,-0.00671143364161253,-0.022672312334179878,-0.018269382417201996
1746521846961045800,7.285045654296875,-0.016112126410007477,-0.023126646876335144,-0.010279100388288498
1746521846971035600,7.29503564453125,-0.01805325224995613,-0.020115355029702187,-0.0020539031829684973
1746521846981025800,7.30502587890625,-0.019353140145540237,-0.009377490729093552,0.005787508562207222
1746521846991015700,7.315015625,-0.024618620052933693,-0.003003266640007496,0.009371340274810791
1746521847001005600,7.325005615234375,-0.025888148695230484,0.0017534054350107908,0.013600705191493034
1746521847010995700,7.33499560546875,-0.014510195702314377,0.004116900730878115,0.009267372079193592
1746521847020985600,7.344985595703125,-0.0008375264005735517,0.006811752915382385,0.0041799359023571014
1746521847030975700,7.354975830078125,0.005903388373553753,-0.00029557570815086365,-0.006111456081271172
1746521847040966000,7.3649658203125,0.007696761284023523,-0.01152346283197403,-0.01861899346113205
1746521847050955800,7.374955810546875,0.011849642731249332,-0.019570525735616684,-0.02757842093706131
1746521847060945700,7.384945556640625,0.012747660279273987,-0.021868035197257996,-0.028140880167484283
1746521847070935800,7.394935791015625,0.009995322674512863,-0.018559113144874573,-0.02130434289574623
1746521847080925700,7.40492578125,0.0008087485330179334,-0.0023884002584964037,-0.015215027146041393
1746521847090915600,7.41491552734375,-0.0038317381404340267,0.011649547144770622,-0.008733432739973068
1746521847100905700,7.42490576171875,-0.006911151111125946,0.010997871868312359,-0.0017468964215368032
1746521847110895600,7.4348955078125,-0.008270454593002796,0.0056847697123885155,0.004992381669580936
1746521847120884700,7.444884765625,-0.007451266050338745,0.0038668960332870483,0.009137325920164585
1746521847130874600,7.45487451171875,-0.008487124927341938,0.0058664982207119465,0.01040678471326828
1746521847140864500,7.464864501953125,-0.00503939762711525,0.008257217705249786,0.009650180116295815
1746521847150855000,7.47485498046875,0.0021126125939190388,0.0011433794861659408,0.003128059906885028
1746521847160844800,7.4848447265625,0.010130858048796654,-0.005078829824924469,-0.010714518837630749
1746521847170834700,7.494834716796875,0.012100987136363983,-0.016790498048067093,-0.01614963822066784
1746521847180824800,7.504824951171875,0.01181283313781023,-0.023914186283946037,-0.019980063661932945
1746521847190814700,7.514814697265625,0.0075767310336232185,-0.018455253913998604,-0.0182819627225399
1746521847200804600,7.5248046875,0.009219901636242867,-0.010883886367082596,-0.017514972016215324
1746521847210794800,7.534794677734375,0.010338512249290943,-0.00023762858472764492,-0.017916230484843254
1746521847220784600,7.54478466796875,0.012065039947628975,0.012412918731570244,-0.01638305000960827
1746521847230774500,7.5547744140625,0.005779427941888571,0.016669610515236855,-0.012679092586040497
1746521847240764700,7.5647646484375,0.005243866238743067,0.008056682534515858,-0.002090364694595337
1746521847250754800,7.5747548828125,0.00431674811989069,-0.005301893223077059,0.00558114517480135
1746521847260744700,7.58474462890625,0.011828727088868618,-0.01191798411309719,0.01069787610322237
1746521847270734800,7.59473486328125,0.010230675339698792,-0.014270252548158169,0.010779297910630703
1746521847280724700,7.604724853515625,0.007577633485198021,-0.01580876111984253,0.006914784200489521
1746521847290714600,7.614714599609375,0.008616331033408642,-0.018138593062758446,0.004201133269816637
1746521847300704800,7.624704833984375,0.011816118843853474,-0.015481291338801384,-0.0035811560228466988
1746521847310694700,7.634694580078125,0.0097648361697793,-0.0023252309765666723,-0.009414677508175373
1746521847320684500,7.6446845703125,0.00672110915184021,0.00733938068151474,-0.010877552442252636
1746521847330674700,7.6546748046875,0.005704203620553017,0.00496640196070075,-0.004933038726449013
1746521847340664600,7.66466455078125,0.003953175153583288,-0.004004456102848053,0.0021608234383165836
1746521847350654700,7.67465478515625,0.004291110672056675,-0.009371362626552582,0.010934638790786266
1746521847360644900,7.684644775390625,0.0039398400112986565,-0.009924234822392464,0.020885540172457695
1746521847370634800,7.694634765625,0.0050385561771690845,-0.007761857472360134,0.03049231320619583
1746521847380625000,7.704625,0.0030012379866093397,-0.008290228433907032,0.0326571986079216
1746521847390614800,7.71461474609375,0.004128963220864534,-0.0044280607253313065,0.03389182314276695
1746521847400604700,7.724604736328125,0.004041078966110945,-0.0012208155822008848,0.03250591456890106
1746521847410593800,7.73459375,0.0028611039742827415,0.0036510643549263477,0.030821988359093666
1746521847420584700,7.744584716796875,0.001186508103273809,0.006955248303711414,0.027750032022595406
1746521847430573800,7.75457373046875,0.0018292325548827648,0.00768240075558424,0.02633727341890335
1746521847440563700,7.764563720703125,0.004879883490502834,0.005365983583033085,0.021005094051361084
1746521847450553600,7.7745537109375,0.006796067114919424,0.004257251974195242,0.011418980546295643
1746521847460543700,7.784543701171875,0.004097752273082733,0.0010446805972605944,0.00358715676702559
1746521847470533600,7.79453369140625,0.0037657797802239656,-0.0029490478336811066,-0.004403908271342516
1746521847480523800,7.804523681640625,0.008123244158923626,-0.002230526879429817,-0.008554978296160698
1746521847490514000,7.814513916015625,0.00959493312984705,0.00030422897543758154,-0.008005130104720592
1746521847500503800,7.82450390625,0.009273755364120007,-0.0016393458936363459,-0.002026067115366459
1746521847510493700,7.83449365234375,0.01143216248601675,-0.0019080648198723793,0.007893864996731281
1746521847520483800,7.84448388671875,0.012385041452944279,-0.010506613180041313,0.017585640773177147
1746521847530474500,7.854474609375,0.012555061839520931,-0.017829937860369682,0.027518361806869507
1746521847540464400,7.86446435546875,0.011201110668480396,-0.007457192055881023,0.038160622119903564
1746521847550454500,7.87445458984375,0.004859462380409241,0.000740344519726932,0.04255014285445213
1746521847560444700,7.884444580078125,0.006150296423584223,-0.0011907134903594851,0.03808668628334999
1746521847570434600,7.8944345703125,0.008794172666966915,-0.005274239461869001,0.027673793956637383
1746521847580424400,7.904424560546875,0.00939498096704483,-0.004797533620148897,0.021910713985562325
1746521847590414600,7.91441455078125,0.004133828449994326,-0.00220868899486959,0.016483796760439873
1746521847600404500,7.924404541015625,0.003052318934351206,-0.005232175812125206,0.010457329452037811
1746521847610394400,7.934394287109375,0.006612861528992653,-0.012066755443811417,0.010038099251687527
1746521847620384500,7.944384521484375,0.012236392125487328,-0.02395324409008026,0.008294261991977692
1746521847630374400,7.95437451171875,0.010472469963133335,-0.019595613703131676,0.008798204362392426
1746521847640364300,7.9643642578125,0.001987372525036335,-0.01799585297703743,0.013522918336093426
1746521847650354700,7.974354736328125,-0.006444948259741068,-0.01826317235827446,0.011885480023920536
1746521847660344600,7.984344482421875,-0.0027516765985637903,-0.019975317642092705,0.005486169829964638
1746521847670334500,7.99433447265625,0.001464626519009471,-0.009319856762886047,-0.007815871387720108
1746521847680324600,8.00432470703125,-0.00035830732667818666,0.003860394237563014,-0.015523326583206654
1746521847690314500,8.014314453125,0.0008592898957431316,0.007240744307637215,-0.02094578742980957
1746521847700304400,8.024304443359375,0.006359783001244068,0.003632427891716361,-0.022223304957151413
1746521847710294500,8.03429443359375,0.0060025169514119625,-0.004930494353175163,-0.01626778207719326
1746521847720283400,8.044283447265625,-0.0022546141408383846,-0.006319066509604454,-0.0037823503371328115
1746521847730273500,8.0542734375,-0.012682052329182625,-0.00855318084359169,0.014781903475522995
1746521847740263400,8.064263427734375,-0.014704190194606781,-0.01739540882408619,0.03568878397345543
1746521847750253300,8.07425341796875,-0.013180485926568508,-0.02508518472313881,0.04699436575174332
1746521847760243500,8.084243408203125,-0.019438914954662323,-0.018813973292708397,0.04588968679308891
1746521847770233300,8.0942333984375,-0.022112904116511345,-0.009008216671645641,0.03723756968975067
1746521847780223500,8.104223388671874,-0.02474011294543743,-0.003564449492841959,0.021863140165805817
1746521847790213600,8.114213623046876,-0.024842707440257072,-0.000709974265191704,0.0013875789009034634
1746521847800203500,8.12420361328125,-0.023008588701486588,0.0022402754984796047,-0.025137506425380707
1746521847810193700,8.134193603515625,-0.021967923268675804,0.0008205551421269774,-0.050726063549518585
1746521847820183600,8.14418359375,-0.02404439076781273,0.00014943850692361593,-0.06177898123860359
1746521847830173400,8.15417333984375,-0.028807135298848152,0.003457672195509076,-0.05714878439903259
1746521847840163600,8.16416357421875,-0.033216528594493866,0.0007013003341853619,-0.04800562188029289
1746521847850153500,8.174153564453125,-0.03495422378182411,0.00009819865226745605,-0.03159498795866966
1746521847860143400,8.184143310546874,-0.03610764071345329,0.0006177814211696386,-0.011080123484134674
1746521847870133500,8.194133544921876,-0.038909461349248886,0.003379210364073515,0.009880512952804565
1746521847880123600,8.20412353515625,-0.03786097466945648,0.007258104160428047,0.030688056722283363
1746521847890113500,8.214113525390625,-0.03752690926194191,0.010193550027906895,0.04806123301386833
1746521847900103700,8.224103759765624,-0.03860895335674286,0.01148757990449667,0.05931388959288597
1746521847910093600,8.234093505859375,-0.037375111132860184,0.006078433711081743,0.05761852115392685
1746521847920083500,8.24408349609375,-0.028768571093678474,0.0008477192604914308,0.0445096418261528
1746521847930073600,8.254073486328124,-0.024683354422450066,-0.007551517337560654,0.029819387942552567
1746521847940063500,8.2640634765625,-0.024480421096086502,-0.01974187046289444,0.010151943191885948
1746521847950053400,8.274053466796875,-0.019149402156472206,-0.02226906269788742,-0.0044695110991597176
1746521847960043500,8.28404345703125,-0.016620198264718056,-0.017838360741734505,-0.018266817554831505
1746521847970033400,8.294033447265624,-0.017420219257473946,-0.007328188046813011,-0.02605404518544674
1746521847980023600,8.3040234375,-0.017598118633031845,0.007287772372364998,-0.028543302789330482
1746521847990013700,8.314013671875,-0.017216797918081284,0.012582872994244099,-0.0269551370292902
1746521848000003600,8.324003662109375,-0.02075134590268135,0.007813950069248676,-0.020970482379198074
1746521848009993500,8.333993408203124,-0.020111948251724243,0.0007660645060241222,-0.008660399354994297
1746521848019982600,8.343982666015625,-0.017304178327322006,-0.008454332128167152,0.0016998301725834608
1746521848029972500,8.353972412109375,-0.012575797736644745,-0.007119989022612572,0.008403160609304905
1746521848039962600,8.363962646484374,-0.010482287034392357,0.002741163596510887,0.011524651199579239
1746521848049952500,8.373952392578126,-0.007927432656288147,0.012181809172034264,0.014065387658774853
1746521848059942400,8.3839423828125,-0.005092764273285866,0.013911798596382141,0.018207401037216187
1746521848069932500,8.3939326171875,-0.002791611012071371,0.0026000163052231073,0.025268159806728363
1746521848079922400,8.40392236328125,-0.0013306007022038102,-0.010498741641640663,0.02742132544517517
1746521848089912300,8.413912353515625,0.0007283338927663863,-0.011844640597701073,0.02248050644993782
1746521848099902500,8.42390234375,-0.00019977774354629219,0.001056244713254273,0.012595918960869312
1746521848109892600,8.433892578125,0.001473739743232727,0.01743829995393753,0.0015809974865987897
1746521848119882500,8.443882568359374,0.0006873083766549826,0.027322888374328613,-0.007870295085012913
1746521848129872600,8.45387255859375,-0.002218011999502778,0.0327470637857914,-0.013321660459041595
1746521848139862500,8.463862548828125,-0.0034566482063382864,0.02946099080145359,-0.01780722290277481
1746521848149852400,8.473852294921874,-0.002087237313389778,0.027254942804574966,-0.019232727587223053
1746521848159842600,8.483842529296876,0.0021754184272140265,0.025618430227041245,-0.016673963516950607
1746521848169832400,8.49383251953125,0.0036901722196489573,0.024806909263134003,-0.008545751683413982
1746521848179822300,8.503822265625,0.004834532737731934,0.022189553827047348,-0.003602125681936741
1746521848189812500,8.5138125,0.0037128739058971405,0.019497402012348175,0.003709105309098959
1746521848199802400,8.52380224609375,0.0032569407485425472,0.018349314108490944,0.008488147519528866
1746521848209792500,8.53379248046875,0.002597399055957794,0.024621538817882538,0.011184082366526127
1746521848219782700,8.54378271484375,0.003983840346336365,0.02114824391901493,0.011980900540947914
1746521848229772500,8.5537724609375,0.0038809645920991898,0.014348777011036873,0.014652443118393421
1746521848239762400,8.563762451171876,0.009335118345916271,0.010240050964057446,0.01135971024632454
1746521848249752600,8.573752685546875,0.015012887306511402,0.016665464267134666,0.0027542763855308294
1746521848259742500,8.583742431640625,0.016851266846060753,0.027671242132782936,-0.008140982128679752
1746521848269732400,8.593732421875,0.017985189333558083,0.031627580523490906,-0.015437533147633076
1746521848279722500,8.603722412109375,0.021534916013479233,0.026486612856388092,-0.01844930276274681
1746521848289712400,8.61371240234375,0.02785302698612213,0.019835200160741806,-0.02067026123404503
1746521848299702500,8.62370263671875,0.029139332473278046,0.012580214999616146,-0.020358672365546227
1746521848309691400,8.63369140625,0.03128783032298088,0.010087710805237293,-0.017586303874850273
1746521848319681300,8.643681396484375,0.029576214030385017,0.0038492558524012566,-0.011929485015571117
1746521848329671700,8.653671630859375,0.030909210443496704,0.0032585719600319862,-0.009450800716876984
1746521848339661600,8.66366162109375,0.03125675395131111,0.003096651751548052,-0.0056278337724506855
1746521848349651500,8.6736513671875,0.032616324722766876,0.00027113419491797686,-0.004620778374373913
1746521848359641600,8.6836416015625,0.03541583940386772,-0.005447737872600555,-0.006394177675247192
1746521848369631500,8.693631591796875,0.038775697350502014,0.0014733974821865559,-0.0065964884124696255
1746521848379621600,8.70362158203125,0.039192747324705124,0.011678097769618034,-0.004390858579427004
1746521848389611500,8.713611572265625,0.030689427629113197,0.012024473398923874,0.0031209243461489677
1746521848399601400,8.723601318359375,0.02842654101550579,0.0018954068655148149,0.01486679632216692
1746521848409591600,8.733591552734374,0.026995189487934113,-0.01016685925424099,0.020609475672245026
1746521848419581400,8.74358154296875,0.027732886373996735,-0.012413501739501953,0.01209774799644947
1746521848429571300,8.7535712890625,0.028013790026307106,-0.007504011504352093,0.0019123187521472573
1746521848439561700,8.763561767578125,0.023178821429610252,-0.0013398588635027409,-0.013879160396754742
1746521848449551600,8.773551513671874,0.02223321609199047,0.002975266659632325,-0.021864570677280426
1746521848459541500,8.78354150390625,0.021425213664770126,0.0013454121071845293,-0.03007482923567295
1746521848469531600,8.79353173828125,0.019856469705700874,-0.0042318319901824,-0.032834649085998535
1746521848479521500,8.803521484375,0.01988949254155159,-0.011709456332027912,-0.03122636489570141
1746521848489511400,8.813511474609374,0.016440346837043762,-0.014067957177758217,-0.014553191140294075
1746521848499501600,8.82350146484375,0.013295420445501804,-0.0127302510663867,0.0029914474580436945
1746521848509491500,8.833491455078125,0.011120786890387535,-0.004614157602190971,0.02097155898809433
1746521848519481300,8.8434814453125,0.009537803940474987,0.005211841315031052,0.03320425748825073
1746521848529471000,8.853470947265626,0.005593695677816868,0.010415075346827507,0.03976314514875412
1746521848539460900,8.8634609375,0.0023747326340526342,0.006008610129356384,0.037935685366392136
1746521848549450800,8.87345068359375,0.0028612862806767225,-0.003229217603802681,0.027064988389611244
1746521848559441000,8.88344091796875,0.0053715817630290985,-0.008710268884897232,0.010838346555829048
1746521848569430800,8.8934306640625,0.0020777771715074778,-0.014460825361311436,-0.005711480975151062
1746521848579421000,8.9034208984375,0.0016098597552627325,-0.020486759021878242,-0.014528674073517323
1746521848589410800,8.913410888671875,0.000793413317296654,-0.02279503643512726,-0.021465806290507317
1746521848599401000,8.92340087890625,0.004506126046180725,-0.01338475663214922,-0.02563152275979519
1746521848609390800,8.933390869140625,0.0023414953611791134,0.005682693794369698,-0.03192300349473953
1746521848619380000,8.9433798828125,-0.004215740133076906,0.016803788021206856,-0.03225536271929741
1746521848629369900,8.953369873046874,-0.011432010680437088,0.025241736322641373,-0.02970021963119507
1746521848639360000,8.963360107421876,-0.01168847270309925,0.02618769183754921,-0.013628840446472168
1746521848649350000,8.973349853515625,-0.01605840027332306,0.012573933228850365,0.006867936812341213
1746521848659340000,8.983340087890625,-0.020835312083363533,0.0009218045743182302,0.023954512551426888
1746521848669330000,8.993329833984374,-0.021330127492547035,-0.011453106068074703,0.03233468160033226
1746521848679319800,9.00331982421875,-0.015547608025372028,-0.016899537295103073,0.03106248937547207
1746521848689310000,9.01331005859375,-0.006854004226624966,-0.011558138765394688,0.021365951746702194
1746521848699299800,9.0232998046875,-0.00408245250582695,-0.007412662263959646,0.01128801703453064
1746521848709289700,9.033289794921876,-0.007262467406690121,-0.008905994705855846,0.005670187063515186
1746521848719279900,9.04327978515625,-0.008414550684392452,-0.012679960578680038,0.0017268442315980792
1746521848729270000,9.05327001953125,-0.012012721970677376,-0.018263980746269226,0.0018854207592085004
1746521848739260000,9.063260009765624,-0.009622534736990929,-0.020468812435865402,-0.002200667280703783
1746521848749250000,9.07325,-0.005556122399866581,-0.010257503017783165,-0.00746141979470849
1746521848759240000,9.083239990234375,-0.008398514240980148,0.0060671414248645306,-0.012998664751648903
1746521848769229800,9.093229736328125,-0.012749411165714264,0.013550893403589725,-0.015137409791350365
1746521848779220000,9.103219970703124,-0.01300107967108488,0.01045097317546606,-0.012455606833100319
1746521848789209900,9.1132099609375,-0.009808547794818878,0.0036733276210725307,-0.00879653450101614
1746521848799199700,9.12319970703125,-0.007350183092057705,-0.004925752989947796,-0.005820717662572861
1746521848809190000,9.13318994140625,-0.0016604890115559101,-0.009349840693175793,-0.0015946808271110058
1746521848819179800,9.1431796875,-0.0014567570760846138,-0.012391703203320503,0.002962786704301834
1746521848829170000,9.153169921875,-0.0004782266041729599,-0.015178694389760494,0.008699577301740646
1746521848839160000,9.16316015625,-0.0016859702300280333,-0.014455912634730339,0.019505620002746582
1746521848849150000,9.17314990234375,-0.0004170396423432976,-0.008660509251058102,0.0191744826734066
1746521848859139800,9.183139892578126,-0.0007043947698548436,0.0006110192043706775,0.0122830206528306
1746521848869130000,9.1931298828125,-0.0016013799468055367,0.0054977028630673885,0.00033043278381228447
1746521848879120000,9.203119873046875,-0.0012365268776193261,0.0030193650163710117,-0.009716608561575413
1746521848889109800,9.21310986328125,-0.011139705777168274,-0.009130187332630157,-0.01598380319774151
1746521848899100000,9.223099853515626,-0.012998592108488083,-0.009803433902561665,-0.02447156235575676
1746521848909089800,9.23308984375,-0.007086530327796936,0.0037361783906817436,-0.03285127133131027
1746521848919079700,9.24307958984375,-0.006843383423984051,0.021028349176049232,-0.03301079198718071
1746521848929068800,9.25306884765625,-0.00883281696587801,0.023723147809505463,-0.020752286538481712
1746521848939058700,9.26305859375,-0.011257358826696873,0.021856272593140602,-0.0026017797645181417
1746521848949049000,9.273049072265625,-0.00966951809823513,0.019626574590802193,0.011319473385810852
1746521848959039000,9.2830390625,-0.01152787171304226,0.016948500648140907,0.022530317306518555
1746521848969028900,9.29302880859375,-0.009574630297720432,0.01065932959318161,0.03144112601876259
1746521848979019000,9.30301904296875,-0.006516522262245417,0.007158071734011173,0.0295830387622118
1746521848989009000,9.3130087890625,-0.0017309969989582896,0.005758044775575399,0.020253943279385567
1746521848998998800,9.322998779296874,0.0011825010878965259,0.010172233916819096,0.0016299266135320067
1746521849008989000,9.332989013671876,0.0007108872523531318,0.0038466444239020348,-0.018075810745358467
1746521849018978800,9.342978759765625,0.002942616119980812,0.004415495786815882,-0.039611462503671646
1746521849028968700,9.35296875,0.0048087770119309425,0.005339884199202061,-0.051672305911779404
1746521849038958800,9.362958740234374,0.002830847632139921,0.007764159701764584,-0.05373812094330788
1746521849048948700,9.37294873046875,0.002700047567486763,0.0004658248508349061,-0.046645261347293854
1746521849058939000,9.38293896484375,0.0029131006449460983,-0.005771564319729805,-0.03261572867631912
1746521849068929000,9.392928955078125,0.004577796906232834,-0.009563436731696129,-0.013548702001571655
1746521849078919000,9.4029189453125,0.0024944061879068613,-0.017707115039229393,0.005814075469970703
1746521849088908800,9.41290869140625,0.0034596198238432407,-0.03253745660185814,0.021066078916192055
1746521849098899000,9.42289892578125,-0.0028246412985026836,-0.05843989551067352,0.042922377586364746
1746521849108888800,9.432888916015624,-0.008769627660512924,-0.0888969823718071,0.06488777697086334
1746521849118878700,9.442878662109376,-0.009076690301299095,-0.12233269959688187,0.08351525664329529
1746521849128868900,9.452868896484375,-0.003341398201882839,-0.13545569777488708,0.08431610465049744
1746521849138858800,9.462858642578125,-0.0011826399713754654,-0.14342893660068512,0.0777045413851738
1746521849148849000,9.472848876953124,0.00043193099554628134,-0.14844509959220886,0.0723576694726944
1746521849158839000,9.482839111328126,0.0026601976715028286,-0.12712755799293518,0.05605752393603325
1746521849168829000,9.492828857421875,0.0003057169378735125,-0.10925258696079254,0.03264297917485237
1746521849178818800,9.50281884765625,-0.004908486269414425,-0.08009044080972672,0.00940183736383915
1746521849188809000,9.51280908203125,-0.01528829988092184,-0.036472443491220474,0.01110015157610178
1746521849198798800,9.522798828125,-0.022248471155762672,0.0009670730214565992,0.009762979112565517
1746521849208789000,9.5327890625,-0.026366453617811203,0.03858918324112892,0.008514867164194584
1746521849218779000,9.54277880859375,-0.02441542036831379,0.07252132147550583,0.005652768071740866
1746521849228768800,9.552768798828126,-0.025232011452317238,0.09735219925642014,0.0029940223321318626
1746521849238759000,9.562759033203125,-0.024139050394296646,0.11470535397529602,0.0028331673238426447
1746521849248748800,9.572748779296875,-0.012869656085968018,0.13233047723770142,0.0028201823588460684
1746521849258738000,9.582738037109374,0.0027154290582984686,0.14395037293434143,0.00756060890853405
1746521849268727800,9.592727783203125,0.007246284745633602,0.1076611876487732,0.0198111180216074
1746521849278718000,9.602718017578125,-0.004574156366288662,0.05293163284659386,0.041204024106264114
1746521849288708000,9.6127080078125,-0.015094654634594917,0.005180410575121641,0.06995686888694763
1746521849298698000,9.622697998046876,-0.021568533033132553,-0.033479370176792145,0.09577009081840515
1746521849308688000,9.63268798828125,-0.01886833645403385,-0.05568097159266472,0.08594565838575363
1746521849318678000,9.642677978515625,-0.010507873259484768,-0.03868414834141731,0.05926104635000229
1746521849328668000,9.65266796875,-0.001580912503413856,-0.011254055425524712,0.024198276922106743
1746521849338657800,9.66265771484375,-0.004178293514996767,0.022305501624941826,-0.01204654574394226
1746521849348648000,9.67264794921875,-0.0042646052315831184,0.039198242127895355,-0.03582208976149559
1746521849358637800,9.682637939453125,-0.006855860818177462,0.060309916734695435,-0.061834778636693954
1746521849368627700,9.692627685546874,-0.00998886302113533,0.06883012503385544,-0.08122888952493668
1746521849378617900,9.702617919921876,-0.012177182361483574,0.06534324586391449,-0.08556532114744186
1746521849388608000,9.71260791015625,-0.011665004305541515,0.061242830008268356,-0.083031564950943
1746521849398598000,9.722597900390625,-0.008333390578627586,0.05313323810696602,-0.071673184633255
1746521849408588000,9.732588134765624,-0.0031412714160978794,0.040070272982120514,-0.052134931087493896
1746521849418578000,9.742577880859375,0.0015940950252115726,0.024561086669564247,-0.029682351276278496
1746521849428567800,9.75256787109375,0.014015941880643368,0.03361120820045471,-0.003925213124603033
1746521849438558000,9.762557861328125,0.027858521789312363,0.03474465012550354,0.026004724204540253
1746521849448547800,9.7725478515625,0.021685872226953506,-0.00032855221070349216,0.062296003103256226
1746521849458537700,9.782537841796875,0.005997989326715469,-0.02687201276421547,0.09506113827228546
1746521849468527900,9.79252783203125,-0.04187920317053795,-0.05725862458348274,0.12060140818357468
1746521849478517800,9.802517822265624,-0.07991446554660797,-0.12641985714435577,0.14534829556941986
1746521849488508000,9.8125078125,-0.07508402317762375,-0.16056397557258606,0.16316963732242584
1746521849498498000,9.822498046875,-0.02726723812520504,-0.14909161627292633,0.1628713756799698
1746521849508488000,9.832488037109375,0.012152086943387985,-0.17543122172355652,0.16232764720916748
1746521849518477800,9.842477783203124,0.0381820909678936,-0.1994960755109787,0.1476496309041977
1746521849528467700,9.8524677734375,0.057713065296411514,-0.20789803564548492,0.1221819519996643
1746521849538457600,9.86245751953125,0.07076121866703033,-0.1836339831352234,0.09522916376590729
1746521849548447500,9.872447509765625,0.07512500882148743,-0.14782261848449707,0.06728941202163696
1746521849558438000,9.88243798828125,0.07027699053287506,-0.11896912753582001,0.04078829661011696
1746521849568427800,9.892427734375,0.05667535215616226,-0.08584515750408173,0.011270093731582165
1746521849578417700,9.902417724609375,0.03843056783080101,-0.03146101161837578,-0.01772587187588215
1746521849588407800,9.91240771484375,0.01714887097477913,0.020410073921084404,-0.044057004153728485
1746521849598397700,9.922397705078126,-0.0019377372227609158,0.058687686920166016,-0.06343496590852737
1746521849608386800,9.93238671875,-0.018892357125878334,0.069081149995327,-0.07767526060342789
1746521849618376700,9.942376708984375,-0.028302902355790138,0.05578265339136124,-0.08861925452947617
1746521849628366600,9.95236669921875,-0.030970631167292595,0.0461236909031868,-0.10217920690774918
1746521849638356700,9.962356689453125,-0.02883956767618656,0.05998917296528816,-0.11846496909856796
1746521849648346600,9.9723466796875,-0.02345455251634121,0.07865963876247406,-0.1328292191028595
1746521849658336500,9.98233642578125,-0.02242976799607277,0.08685498684644699,-0.13640451431274414
1746521849668326700,9.99232666015625,-0.029083073139190674,0.0930110365152359,-0.12752100825309753
1746521849678316800,10.00231689453125,-0.03188125416636467,0.08764876425266266,-0.11725345999002457
1746521849688306700,10.012306640625,-0.026750409975647926,0.06716133654117584,-0.10044784843921661
1746521849698296800,10.022296875,-0.022212915122509003,0.05691082775592804,-0.08575411885976791
1746521849708286700,10.03228662109375,-0.026841333135962486,0.0693008154630661,-0.07310935854911804
1746521849718276900,10.04227685546875,-0.03624016046524048,0.07152535766363144,-0.06136614829301834
1746521849728266800,10.052266845703125,-0.03881341218948364,0.061236120760440826,-0.05433465167880058
1746521849738256600,10.062256591796874,-0.03646237403154373,0.05151132121682167,-0.054114408791065216
1746521849748246800,10.072246826171876,-0.03207738697528839,0.04643560200929642,-0.058848217129707336
1746521849758236700,10.082236572265625,-0.05251368507742882,-0.15600965917110443,0.007453573867678642
1746521849768226600,10.0922265625,-0.07977895438671112,-0.4768334627151489,0.2925247550010681
1746521849778216700,10.102216796875,-0.033900946378707886,-0.3298264443874359,0.39452144503593445
1746521849788206800,10.112206787109375,-0.02871372364461422,-0.3383365869522095,0.5052313804626465
1746521849798196700,10.12219677734375,-0.04183831438422203,-0.2957715690135956,0.5693938732147217
1746521849808187000,10.132186767578125,-0.043133143335580826,-0.1686258465051651,0.5482499599456787
1746521849818176800,10.1421767578125,-0.04443276673555374,-0.06948167830705643,0.4752851724624634
1746521849828166700,10.152166748046875,-0.0744938924908638,-0.015620206482708454,0.4023210108280182
1746521849838156800,10.16215673828125,-0.11369588971138,0.01551880408078432,0.36264923214912415
1746521849848146700,10.172146728515624,-0.1330210417509079,0.02317582629621029,0.3082824945449829
1746521849858136600,10.182136474609376,-0.13306711614131927,0.012641160748898983,0.24641139805316925
1746521849868126700,10.192126708984375,-0.11749234795570374,-0.0049741677939891815,0.18150845170021057
1746521849878116600,10.20211669921875,-0.09469142556190491,-0.008960654027760029,0.10602274537086487
1746521849888106800,10.212106689453124,-0.060782887041568756,0.00011896318756043911,0.028994739055633545
1746521849898097000,10.222096923828126,-0.017198922112584114,0.020281223580241203,-0.05442159250378609
1746521849908086800,10.232086669921875,0.015553314238786697,0.049184948205947876,-0.1417565792798996
1746521849918076700,10.24207666015625,0.03507561609148979,0.07732976973056793,-0.22533029317855835
1746521849928066800,10.25206689453125,0.05110166221857071,0.11132776737213135,-0.29996082186698914
1746521849938056700,10.262056640625,0.05380796641111374,0.13696762919425964,-0.3585948348045349
1746521849948045800,10.2720458984375,0.039007361978292465,0.1397038698196411,-0.3829286992549896
1746521849958035700,10.28203564453125,0.015917224809527397,0.11215720325708389,-0.367173433303833
1746521849968025600,10.292025634765626,-0.0006751000182703137,0.08271334320306778,-0.32586413621902466
1746521849978015700,10.302015625,-0.007052039261907339,0.07273873686790466,-0.278276652097702
1746521849988005600,10.312005615234375,-0.008594391867518425,0.07691089808940887,-0.22729454934597015
1746521849997995500,10.32199560546875,-0.011899640783667564,0.0821397453546524,-0.17427101731300354
1746521850007986000,10.33198583984375,-0.01795976795256138,0.09536862373352051,-0.12619195878505707
1746521850017975800,10.341975830078125,-0.02680865302681923,0.1203826293349266,-0.08181942999362946
1746521850027965700,10.351965576171875,-0.0331452377140522,0.14328932762145996,-0.04702471196651459
1746521850037955800,10.361955810546876,-0.036000143736600876,0.1529768407344818,-0.017710763961076736
1746521850047945700,10.37194580078125,-0.038353439420461655,0.1403041034936905,-0.0004055036697536707
1746521850057935600,10.381935546875,-0.03987303748726845,0.11914156377315521,0.0031508817337453365
1746521850067925800,10.39192578125,-0.038964927196502686,0.08010072261095047,0.002047897782176733
1746521850077915600,10.40191552734375,-0.03602080047130585,0.03860867768526077,0.0019711987115442753
1746521850087905500,10.411905517578125,-0.030393436551094055,0.012347089126706123,-0.0010240119881927967
1746521850097895700,10.421895751953125,-0.0267046932131052,-0.006646042689681053,-0.001724423374980688
1746521850107885600,10.431885498046874,-0.025744739919900894,-0.013480202294886112,0.00021688593551516533
1746521850117875700,10.441875732421876,-0.01964610069990158,-0.014221359975636005,0.004403641447424889
1746521850127865900,10.451865966796875,-0.01363206747919321,-0.007624704856425524,0.009958542883396149
1746521850137855700,10.461855712890625,-0.007746480870991945,-0.00324034271761775,0.01970704458653927
1746521850147845600,10.471845703125,-0.004250893834978342,-0.0016977242194116116,0.031476475298404694
1746521850157835800,10.481835693359375,-0.0033350326120853424,-0.008158552460372448,0.04181060567498207
1746521850167825700,10.49182568359375,-0.002555161714553833,-0.012884343974292278,0.04760335758328438
1746521850177815600,10.501815673828125,-0.0001758935395628214,-0.01268833503127098,0.044228602200746536
1746521850187805700,10.5118056640625,0.0037594337482005358,-0.004631303250789642,0.03481154516339302
1746521850197795600,10.521795654296875,0.0058713206090033054,0.00955588836222887,0.021799340844154358
1746521850207785700,10.53178564453125,0.0034582302905619144,0.022416826337575912,0.011593573726713657
1746521850217775900,10.54177587890625,-0.007581637240946293,0.032182902097702026,0.009557055309414864
1746521850227765800,10.551765869140626,-0.012330898083746433,0.03102356567978859,0.0123194120824337
1746521850237755600,10.561755615234375,-0.010762562975287437,0.02405034378170967,0.01363661140203476
1746521850247745800,10.571745849609375,-0.0026524777058511972,0.02262028679251671,0.007294622715562582
1746521850257735700,10.581735595703124,0.006375106051564217,0.024833640083670616,0.0003102165646851063
1746521850267725800,10.591725830078126,0.005197280552238226,0.023561976850032806,-0.01091691106557846
1746521850277715700,10.6017158203125,0.0023125445004552603,0.011117557063698769,-0.01794259622693062
1746521850287705600,10.61170556640625,0.004991203546524048,-0.01295869518071413,-0.02137671783566475
1746521850297695700,10.62169580078125,0.006412799004465342,-0.03495880216360092,-0.015196852385997772
1746521850307685600,10.631685546875,0.00799602922052145,-0.040175773203372955,-0.008588721044361591
1746521850317675800,10.64167578125,0.009933211840689182,-0.017060866579413414,-0.011659878306090832
1746521850327664600,10.65166455078125,0.010243503376841545,0.02250327169895172,-0.020544661208987236
1746521850337654800,10.66165478515625,0.00792309083044529,0.057907335460186005,-0.03038477525115013
1746521850347645000,10.67164501953125,0.02083251252770424,0.08391109108924866,-0.03107711672782898
1746521850357634800,10.681634765625,0.03429825231432915,0.0953831896185875,-0.030225437134504318
1746521850367624700,10.691624755859374,0.03535919636487961,0.08592452108860016,-0.032507188618183136
1746521850377614800,10.70161474609375,0.022943008691072464,0.0598340705037117,-0.0405278317630291
1746521850387604700,10.711604736328125,0.0049602920189499855,0.03137723729014397,-0.05036785826086998
1746521850397594600,10.7215947265625,0.006646605208516121,0.03271494433283806,-0.06065085902810097
1746521850407584800,10.731584716796876,0.01615082286298275,0.062041252851486206,-0.09091766923666
1746521850417574700,10.74157470703125,0.01628264971077442,0.07039638608694077,-0.11043810844421387
1746521850427564500,10.751564453125,0.008846832439303398,0.06330172717571259,-0.11433792859315872
1746521850437554700,10.7615546875,0.0076081957668066025,0.050868768244981766,-0.1013755276799202
1746521850447544800,10.771544921875,0.009531524032354355,0.02048410475254059,-0.07178667932748795
1746521850457534700,10.78153466796875,0.013301760889589787,-0.003015360562130809,-0.040194664150476456
1746521850467524900,10.79152490234375,0.013508577831089497,-0.0054578473791480064,-0.01801631972193718
1746521850477514800,10.8015146484375,-0.00005729863187298179,-0.005441601853817701,0.0042237392626702785
1746521850487504600,10.811504638671876,-0.009713244624435902,-0.02090546116232872,0.04150398448109627
1746521850497494800,10.821494873046875,0.005969045218080282,-0.06628759205341339,0.09540610015392303
1746521850507484700,10.831484619140625,0.016426030546426773,-0.10982546955347061,0.15450145304203033
1746521850517474600,10.841474609375,0.017048943787813187,-0.0867752805352211,0.1762930303812027
1746521850527465200,10.85146533203125,0.026087647303938866,-0.027947818860411644,0.1731322854757309
1746521850537455400,10.861455322265625,0.02935880981385708,0.015546128153800964,0.15303900837898254
1746521850547445200,10.8714453125,0.015460070222616196,0.038668442517519,0.10873018205165863
1746521850557435400,10.881435302734374,0.0019067111425101757,0.03958137333393097,0.05900416895747185
1746521850567425300,10.89142529296875,0.010532299987971783,0.027816912159323692,0.029467301443219185
1746521850577415200,10.901415283203125,0.019823802635073662,0.009467465803027153,-0.002320720348507166
1746521850587405600,10.911405517578125,0.020623017102479935,-0.006224412005394697,-0.0278436578810215
1746521850597395500,10.9213955078125,0.021644871681928635,-0.02152826637029648,-0.04265695810317993
1746521850607385300,10.93138525390625,0.019761933013796806,-0.0343194343149662,-0.04970589280128479
1746521850617375500,10.94137548828125,0.018411977216601372,-0.035907212644815445,-0.05397733673453331
1746521850627365400,10.951365478515624,0.018372491002082825,-0.020233070477843285,-0.05167209729552269
1746521850637355300,10.961355224609376,0.014883482828736305,-0.008693060837686062,-0.04150547832250595
1746521850647345400,10.971345458984375,0.010893730446696281,-0.008144342340528965,-0.024905987083911896
1746521850657335300,10.981335205078125,0.009521936066448689,-0.013602225109934807,-0.008214358240365982
1746521850667325200,10.9913251953125,0.011271736584603786,0.0032509006559848785,-0.002215541433542967
1746521850677315300,11.0013154296875,0.011126327328383923,0.03279654309153557,-0.005431041587144136
1746521850687305500,11.011305419921875,0.004248877055943012,0.04433058574795723,-0.005759723950177431
1746521850697295400,11.02129541015625,0.0021582955960184336,0.032919205725193024,-0.007099559996277094
1746521850707285500,11.031285400390624,0.004543663002550602,0.010679849423468113,-0.011108801700174809
1746521850717275400,11.041275390625,-0.00777505524456501,-0.003662870731204748,-0.010232887230813503
1746521850727265300,11.051265380859375,0.12584902346134186,-0.003590924432501197,0.0017538287211209536
1746521850737255400,11.06125537109375,0.06212970241904259,0.007658533751964569,0.025573140010237694
1746521850747245300,11.071245361328126,0.0270591638982296,-0.017573732882738113,0.03493644669651985
1746521850757235200,11.081235107421875,0.004346128087490797,-0.033297039568424225,0.024302711710333824
1746521850767225300,11.091225341796875,0.018307223916053772,-0.02774195745587349,0.018585586920380592
1746521850777215200,11.10121533203125,-0.03193251043558121,0.01079478207975626,0.013323979452252388
1746521850787205400,11.111205322265626,0.08888686448335648,0.0186911690980196,0.015924109145998955
1746521850797195500,11.121195556640625,-0.010347843170166016,0.03294840082526207,0.02781618945300579
1746521850807185400,11.131185302734375,0.07031872123479843,-0.005705839954316616,0.04018548130989075
1746521850817175300,11.14117529296875,-0.03792572766542435,-0.005474943667650223,0.04585535079240799
1746521850827165400,11.15116552734375,0.047904495149850845,-0.02761514112353325,0.03189947083592415
1746521850837155300,11.1611552734375,-0.060760997235774994,0.00032328267116099596,0.010029593482613564
1746521850847145200,11.171145263671875,0.034687820822000504,-0.008112370036542416,-0.01916082389652729
1746521850857135400,11.18113525390625,-0.05711746588349342,0.009414158761501312,-0.02758280374109745
1746521850867125200,11.191125244140625,0.04334613308310509,-0.02421587146818638,-0.02595514804124832
1746521850877115100,11.201115234375,-0.002451714128255844,-0.025568490847945213,-0.02630029246211052
1746521850887105300,11.211105224609375,0.015386371873319149,-0.018523314967751503,-0.03659506514668465
1746521850897095400,11.221095458984376,0.014172237366437912,0.0070941634476184845,-0.05322703719139099
1746521850907085300,11.231085205078125,0.011330599896609783,0.033203862607479095,-0.0710252970457077
1746521850917075500,11.241075439453125,0.008742007426917553,0.04459286853671074,-0.07875938713550568
1746521850927065300,11.2510654296875,-0.000021345942514017224,0.041451070457696915,-0.07645246386528015
1746521850937055200,11.26105517578125,-0.00933868158608675,0.03223280608654022,-0.06043914332985878
1746521850947045400,11.27104541015625,-0.015497487969696522,0.013184917159378529,-0.03446483239531517
1746521850957035300,11.28103515625,-0.011906747706234455,-0.00622526602819562,-0.0077426740899682045
1746521850967025200,11.291025146484374,-0.004066388588398695,-0.010464639402925968,0.014441543258726597
1746521850977015300,11.301015380859376,-0.0002993473026435822,0.0005810875445604324,0.029023949056863785
1746521850987005200,11.311005126953125,-0.000397130788769573,0.011458439752459526,0.038533955812454224
1746521850996995300,11.320995361328125,0.0016985107213258743,0.019504383206367493,0.039509207010269165
1746521851006985500,11.3309853515625,0.003960333298891783,0.02537984773516655,0.03271947428584099
1746521851016975400,11.340975341796875,0.005130805540829897,0.02595413662493229,0.021140404045581818
1746521851026964500,11.350964599609375,0.007166123017668724,0.016865508630871773,0.006095571909099817
1746521851036954400,11.360954345703124,0.008839121088385582,0.0036469073966145515,-0.007336347363889217
1746521851046944300,11.3709443359375,0.008756803348660469,-0.015580945648252964,-0.01748257502913475
1746521851056934400,11.380934326171875,0.009194361045956612,-0.03152449056506157,-0.021717000752687454
1746521851066924300,11.39092431640625,0.011289086192846298,-0.03648751601576805,-0.029476255178451538
1746521851076914400,11.40091455078125,0.013845188543200493,-0.021814562380313873,-0.032816655933856964
1746521851086904300,11.410904296875,0.008346624672412872,0.005617495626211166,-0.02998747117817402
1746521851096894200,11.420894287109375,-0.00028068581013940275,0.026480434462428093,-0.019730305299162865
1746521851106884400,11.43088427734375,-0.005255327560007572,0.026246128603816032,-0.007418528199195862
1746521851116874500,11.44087451171875,-0.001764190150424838,0.01781189627945423,0.000415959395468235
1746521851126864400,11.450864501953125,0.0023490621242672205,0.001637720037251711,0.0064091370441019535
1746521851136854500,11.4608544921875,0.002757590962573886,-0.010517479851841927,0.005727900192141533
1746521851146844400,11.470844482421874,0.006693197879940271,-0.01678267866373062,0.0010568953584879637
1746521851156834300,11.480834228515626,0.012097550556063652,-0.012592993676662445,-0.01126288715749979
1746521851166824400,11.490824462890625,0.01899939961731434,-0.0028538135811686516,-0.023760836571455002
1746521851176814300,11.500814453125,0.020828457549214363,0.007935184054076672,-0.03198947012424469
1746521851186804200,11.51080419921875,0.02060733735561371,0.021751778200268745,-0.03462667390704155
1746521851196794400,11.52079443359375,0.0168197900056839,0.02437712252140045,-0.029171986505389214
1746521851206784300,11.5307841796875,0.011267241090536118,0.017920874059200287,-0.017017336562275887
1746521851216774100,11.540774169921875,0.005831463728100061,0.01405263226479292,-0.005861886776983738
1746521851226764500,11.5507646484375,0.0032975373324006796,0.011973395943641663,0.0011185167822986841
1746521851236754400,11.56075439453125,0.006165495608001947,0.004376995377242565,0.0036991199012845755
1746521851246744300,11.570744384765625,0.008779888041317463,0.0018478406127542257,0.004448744934052229
1746521851256734500,11.580734375,0.010616404004395008,0.004908345174044371,-0.005318132229149342
1746521851266724400,11.590724365234376,0.008834411390125751,0.010282444767653942,-0.015927091240882874
1746521851276714200,11.60071435546875,0.006250346079468727,0.011598046869039536,-0.029071390628814697
1746521851286704400,11.610704345703125,0.004258620087057352,0.012625282630324364,-0.03944171592593193
1746521851296694300,11.6206943359375,0.003959280904382467,0.009064103476703167,-0.04168622940778732
1746521851306684200,11.63068408203125,0.0037517687305808067,0.007246707566082478,-0.034530602395534515
1746521851316674300,11.64067431640625,0.0067193289287388325,0.001565918792039156,-0.018582263961434364
1746521851326664400,11.65066455078125,0.0033194338902831078,-0.012799814343452454,0.004734196234494448
1746521851336654300,11.660654296875,0.00659964932128787,-0.020046543329954147,0.025035206228494644
1746521851346644500,11.67064453125,0.008654570206999779,-0.023153159767389297,0.03278917074203491
1746521851356634400,11.68063427734375,0.011487375013530254,-0.015301894396543503,0.03221952170133591
1746521851366624300,11.690624267578125,0.01498771645128727,-0.003167424350976944,0.025071732699871063
1746521851376614400,11.700614501953124,0.005910598672926426,0.013056020252406597,0.01783033087849617
1746521851386604300,11.710604248046875,-0.00017009323346428573,0.020632291212677956,0.009617455303668976
1746521851396594200,11.72059423828125,-0.004817842040210962,0.014538710936903954,0.010540773160755634
1746521851406584300,11.730584228515625,-0.001608323655091226,0.0020679798908531666,0.007665609009563923
1746521851416574200,11.74057421875,-0.0005622339667752385,-0.0030807096045464277,0.0029587377794086933
1746521851426564400,11.750564453125,-0.0018378687091171741,-0.0004789632512256503,-0.0031093060970306396
1746521851436554500,11.760554443359375,0.001149665447883308,-0.003943469375371933,-0.013155282475054264
1746521851446544400,11.77054443359375,0.0060060108080506325,-0.014852416701614857,-0.017526868730783463
1746521851456533500,11.780533447265626,0.008346930146217346,-0.023876270279288292,-0.020895501598715782
1746521851466523400,11.7905234375,0.01356784999370575,-0.02339419350028038,-0.021331023424863815
1746521851476513300,11.80051318359375,0.01264000404626131,-0.012781229801476002,-0.022100944072008133
1746521851486503400,11.81050341796875,0.008736804127693176,-0.0016618925146758556,-0.01936160959303379
1746521851496493300,11.820493408203125,0.00594421336427331,0.015463564544916153,-0.014810798689723015
1746521851506483200,11.830483154296875,0.0053542316891252995,0.02699638530611992,-0.011644527316093445
1746521851516473300,11.840473388671874,0.0018479139544069767,0.029205478727817535,-0.0028939119074493647
1746521851526463000,11.850462890625,-0.0010017463937401772,0.0201250147074461,0.005028319079428911
1746521851536453000,11.860453125,-0.0014020195230841637,0.008502712473273277,0.01002627331763506
1746521851546443000,11.870443115234375,-0.003841981291770935,0.0006438199197873473,0.011402977630496025
1746521851556433200,11.88043310546875,-0.007748039904981852,-0.010284461081027985,0.009153138846158981
1746521851566423300,11.89042333984375,-0.011378798633813858,-0.017140928655862808,0.0019418395822867751
