time,seconds_elapsed,z,y,x
1746521903453307000,0.036306884765625,0.3368926982522011,-1.784441284316778,0.04269318656176328
1746521903463296000,0.0462958984375,-0.2423690789490938,-1.5798545312732457,-0.0019080986436456442
1746521903473286000,0.056285888671875,-0.7229933717876672,-1.3976418148621916,-0.023960355975851416
1746521903483275800,0.06627587890625,-1.130061430028081,-1.2576567133277654,-0.056373994455114006
1746521903493266000,0.076265869140625,-1.6088357110857963,-1.177400031242892,-0.24781872265711424
1746521903503255800,0.086255859375,-2.0181571012109516,-1.1664311126567424,-0.5388122779130935
1746521903513246000,0.096245849609375,-2.228258818283677,-1.240661739385128,-0.8135910498186946
1746521903523236000,0.106236083984375,-2.2245868517726657,-1.359382226833701,-0.9454248474709689
1746521903533226000,0.11622607421875,-2.191527462735772,-1.6206480216935275,-0.8794601639803499
1746521903543215900,0.1262158203125,-2.056241624933481,-1.965957689026743,-0.7386543937128037
1746521903553205000,0.136205078125,-1.7162544677972793,-2.3410214202411472,-0.5474637864023447
1746521903563195000,0.14619482421875,-1.2206161457002163,-2.602544550862908,-0.25645492397937925
1746521903573185300,0.156185302734375,-0.7891653413534164,-2.521126496848464,0.08467515611425042
1746521903583175200,0.166175048828125,-0.6325228272676467,-2.2136070464663207,0.43653585252612825
1746521903593165000,0.1761650390625,-0.7592173623353242,-1.9134490647628901,0.6356457815937697
1746521903603155200,0.1861552734375,-1.0934680216461419,-1.5365822296492755,0.6579957066982984
1746521903613145000,0.19614501953125,-1.5464017590045929,-0.8455430621355772,0.46714021309372034
1746521903623135000,0.206135009765625,-2.1686101130068303,-0.06096972474753856,0.1433869093345478
1746521903633125000,0.216125,-2.9581805280297995,0.6507191398240626,-0.22878460756968705
1746521903643114000,0.226114013671875,-3.5702637938588855,1.2979068906515836,-0.4797955869294703
1746521903653104000,0.236104248046875,-3.8000884485334154,1.7962231997862457,-0.617717033932358
1746521903663094000,0.246093994140625,-3.57456353687942,1.9756348873019218,-0.5479304905986413
1746521903673084000,0.256083984375,-2.98013049403131,2.0710056249536573,-0.325507819276303
1746521903683074300,0.26607421875,-2.140879810038209,2.258313764807582,-0.046903534265793856
1746521903693064200,0.276064208984375,-1.1974725859999655,2.399997486953437,0.31523769660927353
1746521903703054000,0.28605419921875,-0.31180501874685285,2.422276538778841,0.6454172340236604
1746521903713044200,0.296044189453125,0.4319394646465778,2.1926633348979054,0.9559685994476079
1746521903723033000,0.306033203125,1.0677677632004021,1.7657143720149993,1.0695444174841047
1746521903733023200,0.316023193359375,1.5792723474711179,1.2984314990475774,1.0440801597513258
1746521903743013000,0.32601318359375,1.9491367564767599,0.9242173703998326,0.9852392637260258
1746521903753003000,0.3360029296875,2.212688324186206,0.6909751623667776,0.9383858887448906
1746521903762993200,0.3459931640625,2.252145889827609,0.5967445346608757,0.92727873073183
1746521903772983000,0.355983154296875,2.054529560318589,0.6316267552107572,0.8356212414495646
1746521903782973000,0.365972900390625,1.677064028659463,0.6911366365388035,0.6698523679044097
1746521903792963000,0.375963134765625,1.1931342645347118,0.6628913697853684,0.5208339554889128
1746521903802952000,0.385951904296875,0.7247662266790866,0.5472558427400886,0.3737088825393468
1746521903812942000,0.395942138671875,0.5084703311413526,0.4278469346359372,0.17118512644022701
1746521903822932200,0.40593212890625,0.6300210735797882,0.32036914121359583,0.03324029856175184
1746521903832922000,0.415922119140625,0.9176075968712568,0.19747619038596748,0.05707790494076907
1746521903842912300,0.425912353515625,1.1883452766925096,0.1416045194298029,0.14420271922945976
1746521903852902100,0.435902099609375,1.545347866037488,0.2030722568273544,0.1376709063079208
1746521903862892000,0.44589208984375,1.9919091457545757,0.26627894684672354,0.18775456844717264
1746521903872882200,0.455882080078125,2.3397791650950905,0.28449089536368843,0.3789657070890069
1746521903882872000,0.4658720703125,2.5441473069518805,0.30052827632054685,0.5544156513668597
1746521903892861200,0.475861083984375,2.6211492980897426,0.25180983811989427,0.6444582527983933
1746521903902851000,0.48585107421875,2.5356682324200865,0.15550971066355704,0.6523633998997509
1746521903912841000,0.495841064453125,2.3251602726340295,-0.03738061323687434,0.6796583801910281
1746521903922831000,0.5058310546875,2.155284767487645,-0.20264847845733164,0.6516487488243728
1746521903932821000,0.515821044921875,2.031310597294569,-0.3265614199824631,0.5404022505182773
1746521903942811100,0.52581103515625,1.9881237819969653,-0.4675779834564775,0.48051885970272123
1746521903952801300,0.53580126953125,1.9342086519360542,-0.6144649002686142,0.4449011644851416
1746521903962791200,0.545791259765625,1.7628730111092328,-0.6938967489019036,0.4722421758752316
1746521903972780300,0.5557802734375,1.5209697961062192,-0.7561006185542791,0.612380202949047
1746521903982770200,0.565770263671875,1.2568489040762185,-0.876276273247227,0.8060864463422447
1746521903992760000,0.575760009765625,1.0196177725374698,-1.0708826072853057,0.9341952321220188
1746521904002750200,0.585750244140625,0.9433207147985696,-1.2171196818865835,0.9368232425380497
1746521904012740000,0.595739990234375,0.8388111235320568,-1.2797766290687025,0.9256736336227506
1746521904022730200,0.605730224609375,0.7079810960948467,-1.377812202015519,0.7137745848044753
1746521904032720100,0.61572021484375,0.48642684163749217,-1.5023647566184402,0.3456571655966341
1746521904042710000,0.6257099609375,0.0701923111230135,-1.4206943352781236,-0.005559753018990159
1746521904052700200,0.6357001953125,-0.15249182414710521,-1.3402433727301657,0.18237514043115077
1746521904062689000,0.64568896484375,-0.4603162488251924,-1.7846981816872953,0.4972662886250764
1746521904072679200,0.65567919921875,-0.9060568598091602,-2.41570505143404,0.3018047259971499
1746521904082669000,0.6656689453125,-0.9890876097172498,-2.0646043796092273,-0.15966222723312676
1746521904092659200,0.6756591796875,-1.4108032019913195,-1.3616821743391454,-0.49544338404685256
1746521904102649000,0.685649169921875,-1.8166542856574057,-0.9397153837829828,-0.18622677435800433
1746521904112639200,0.69563916015625,-2.1634709965527055,-0.7434237270064652,0.052422918741777534
1746521904122629000,0.705629150390625,-2.2685697858840226,-0.730887486038357,0.21726554428748784
1746521904132619300,0.715619384765625,-2.2811510350376367,-0.97224154272601,0.383031714418903
1746521904142608100,0.725608154296875,-2.319506192395091,-1.4531924371704459,0.4922219377823174
1746521904152598000,0.735597900390625,-2.1557588147401807,-1.7693275940760969,0.3646629679050296
1746521904162588200,0.745588134765625,-2.0825193910062314,-1.4389377018466591,-0.4551464449718594
1746521904172578000,0.755578125,-2.3985353054463863,-1.41431822437495,-0.8726369668968021
1746521904182568200,0.765568115234375,-3.245700415825844,-1.5990452616944908,-0.8689755217798054
1746521904192558000,0.77555810546875,-4.164889728930592,-0.9482993069287389,-1.1673229469299315
1746521904202548000,0.7855478515625,-4.6014089225828645,-0.16022680231332778,-0.8761425638649613
1746521904212538400,0.795538330078125,-4.853545362308621,0.651298401016742,-0.464216763395071
1746521904222528300,0.8055283203125,-4.687681430891156,1.2314856224998831,-0.31860169314965603
1746521904232517000,0.81551708984375,-4.120665971800685,1.8975300494886933,-0.10814897068217397
1746521904242507300,0.82550732421875,-3.6080437816768884,2.9247312628924846,0.48270358333066105
1746521904252497200,0.8354970703125,-2.9933763445734978,2.7815865282833574,0.05410071576088667
1746521904262487300,0.8454873046875,-2.5095219837725162,2.6557994634494184,-0.11314385636001825
1746521904272477200,0.855477294921875,-1.6108873829185961,2.2245500268936156,-0.5352540009096265
1746521904282467000,0.865467041015625,-0.5599520965754986,2.186788743776083,-0.6122582570698112
1746521904292457200,0.875457275390625,0.34265316147506236,2.075350376159698,-0.5827128675032407
1746521904302447000,0.885447021484375,1.0045768552720546,1.7981895314231513,-0.6073298607569187
1746521904312436200,0.895436279296875,1.531401173749566,1.3374870597593485,-0.3611820669867098
1746521904322426000,0.905426025390625,1.4316671263217926,0.8685433409076183,-0.8114956849746405
1746521904332416000,0.915416015625,1.4864724832206964,0.4429745072714984,-1.0297186030521988
1746521904342406100,0.92540625,1.5297446387141942,0.10103767737224698,-0.9733797529757022
1746521904352396000,0.93539599609375,1.4717852016985415,-0.10691438738591968,-0.9690626204289495
1746521904362386200,0.94538623046875,1.5418722988814115,-0.36824871743731197,-1.0648572825811802
1746521904372376300,0.955376220703125,1.671257972729206,-0.6223662479776889,-1.050128280809149
1746521904382366200,0.9653662109375,1.876188424643874,-0.48346930700615043,-0.8033554139431566
1746521904392355300,0.975355224609375,2.0226836387246845,-0.06793306095413863,-0.23267105708159505
1746521904402345200,0.98534521484375,2.1331249581277367,0.2120724326238036,0.29508089763484896
1746521904412335000,0.995335205078125,2.2192799775362015,0.3074616557803005,0.4478894595809281
1746521904422325200,1.0053251953125,2.3307395340710877,0.2675680368091911,0.4253936231996864
1746521904432315100,1.015315185546875,2.4186732535898683,0.1877509517179802,0.3734494278855622
1746521904442305000,1.025304931640625,2.43664847074151,0.12925675023850053,0.4710310830524191
1746521904452295200,1.035295166015625,2.534999539378285,0.04100008237566799,0.3173523141430691
1746521904462285000,1.04528515625,2.637228326231241,-0.10495828488208353,0.21370197005439548
1746521904472274200,1.055274169921875,2.8600235206604,-0.3157363303137943,0.1905828872082755
1746521904482264000,1.06526416015625,3.0313755281001327,-0.6178458479437977,0.1301491690335795
1746521904492254000,1.07525390625,3.124260148024559,-0.8838895977951585,-0.1656148154946044
1746521904502244400,1.085244384765625,3.1762177142769095,-1.0152074087493121,-0.34554051694702353
1746521904512234200,1.095234130859375,2.9882623625606297,-1.0343987236924468,-0.4072695721618831
1746521904522224000,1.10522412109375,2.624016377958655,-1.017105935847014,-0.5859755590936169
1746521904532214300,1.11521435546875,2.107790610384941,-1.0992396638501434,-0.8282442098755389
1746521904542204200,1.1252041015625,1.7115297773629425,-1.2987541551306843,-0.6888744637604802
1746521904552193300,1.135193359375,1.3066414012491703,-1.2199714180558918,-0.4255168477205559
1746521904562183200,1.14518310546875,0.8499135323047637,-1.3010888816885648,-0.6554739331357181
1746521904572173000,1.155173095703125,0.3909001827716827,-1.2229695038933306,-0.8104600583165884
1746521904582163000,1.165162841796875,-0.09618833764493465,-1.182354584910348,-0.6770485630188137
1746521904592152800,1.17515283203125,-0.4431500099688768,-1.2029210606642067,-0.5525999437144026
1746521904602142700,1.185142822265625,-0.4627753324151039,-1.2181420837368815,-0.43115905485861
1746521904612132900,1.1951328125,-0.39258185224831105,-1.148085235561803,-0.22798914634305983
1746521904622121700,1.205121826171875,-0.36993279806673524,-1.252344724524766,-0.21159802004508674
1746521904632111900,1.21511181640625,-0.3726888187766075,-1.388942960099876,-0.20957235943637786
1746521904642101800,1.225101806640625,-0.4583230291813612,-1.4807432919189334,-0.29472810214180495
1746521904652091600,1.235091552734375,-0.8428899172782898,-1.5000577948503195,-0.5222739616967738
1746521904662081800,1.245081787109375,-1.4188549910217523,-1.4895736641064286,-0.5578107736978679
1746521904672071700,1.25507177734375,-2.097942001065612,-1.3500776612631975,-0.6208797357469796
1746521904682061600,1.2650615234375,-2.7893688527226446,-1.1176976230174303,-0.7556151731248945
1746521904692051700,1.2750517578125,-3.5053742653191087,-0.8509476976580918,-0.43864678026549514
1746521904702040600,1.28504052734375,-4.327050714176893,-0.45774829803332684,0.024339966410584748
1746521904712030700,1.29503076171875,-4.706451013290882,-0.31427597543764857,0.2898292972495779
1746521904722020900,1.305020751953125,-4.261022536996006,-0.5334143643923104,0.48447234656885263
1746521904732010800,1.3150107421875,-3.504152614569664,-0.5949571032548323,0.45668326261769976
1746521904742001000,1.3250009765625,-2.55992589084208,-0.6723105016462504,0.103832787983492
1746521904751990800,1.33499072265625,-1.4911848986953495,-0.9616709027424454,0.15521390605475752
1746521904761980700,1.344980712890625,-0.9960282226353883,-1.043156615165621,0.39454146188348527
1746521904771970800,1.354970703125,-1.4087784181654452,-0.6142931969635188,0.6471447884686291
1746521904781959700,1.364959716796875,-2.3111066128402946,0.01778769522290677,0.3311934271646663
1746521904791949800,1.37494970703125,-2.7520073825776574,0.5756417600732296,-0.17920440144054592
1746521904801939700,1.384939697265625,-2.9173902524799105,1.106687276442349,-0.09454930173363536
1746521904811929600,1.3949296875,-2.9334178426951167,1.5306683294303713,0.05461630060020834
1746521904821919700,1.404919677734375,-2.5199784958571194,1.9008983568780122,-0.08526212568935006
1746521904831909600,1.41490966796875,-1.9609949520528316,2.0198777875237166,-0.1844970279559493
1746521904841899500,1.4248994140625,-1.4995231034517287,1.8795818664744495,-0.09854973301403223
1746521904851888600,1.434888671875,-0.8472522041410208,1.8858207608640192,-0.4192973886838183
1746521904861878500,1.44487841796875,-0.4041016096502542,1.864113517577201,-0.34566407026145607
1746521904871869000,1.454868896484375,0.1557078635841608,2.0532323601149023,-0.917929668432474
1746521904881858800,1.46485888671875,0.23033260419666765,1.8997033018745482,-0.804949478201568
1746521904891848700,1.4748486328125,0.23564357008635997,1.5886016090914605,-0.46931401346884666
1746521904901838800,1.4848388671875,0.08249532785713672,1.1892619531460105,-0.18952029947806148
1746521904911828700,1.494828857421875,-0.09459493097364902,0.672009180612117,-0.11046090088635682
1746521904921818600,1.504818603515625,-0.08985855010151862,0.12557678308412432,-0.31103593407049773
1746521904931807700,1.514807861328125,0.06225684194862842,-0.29525477463072164,-0.4438870190065354
1746521904941797600,1.524797607421875,0.3820207107454538,-0.5722494142211974,-0.38716296900473535
1746521904951787800,1.534787841796875,0.825748228341341,-0.8233463548313826,-0.2463238079242408
1746521904961777700,1.544777587890625,1.4535031105548142,-0.6973040731273591,-0.37809144500512626
1746521904971767600,1.554767578125,2.065029327023029,-0.8025538152366876,-0.6243777339305728
1746521904981757700,1.5647578125,2.6119302188456057,-0.8659554433062672,-0.6103611182115972
1746521904991747800,1.574747802734375,3.1120582535773513,-1.0078004934936762,-0.48625645350664853
1746521905001736700,1.58473681640625,3.417128995633125,-1.0794697453014552,-0.24665201696529984
1746521905011726800,1.594726806640625,3.7845956958472726,-0.3710283382184803,-0.26501265323795375
1746521905021716700,1.604716796875,4.0957483881652355,-0.14333097789622842,-0.31872181239798664
1746521905031707000,1.614706787109375,3.518844572266936,-0.8153155355237424,0.2305366754014045
1746521905041696800,1.62469677734375,3.2097932361423966,-0.9965911902803927,-0.24688977124392986
1746521905051686700,1.634686767578125,3.172304340225458,-0.803216589994356,-0.623229952134937
1746521905061676800,1.6446767578125,2.796211265963316,-0.24892105787582694,-1.014109457444772
1746521905071666700,1.654666748046875,2.2426164294600484,0.005338730679452419,-1.2495061400979757
1746521905081655800,1.66465576171875,1.790062631329894,-0.060303077532351014,-1.4155886827021837
1746521905091645700,1.674645751953125,1.405660578405857,-0.0883542830184102,-1.5513265020556748
1746521905101635600,1.684635498046875,1.061615670311451,-0.1622894339315593,-1.2096028765156865
1746521905111625700,1.694625732421875,0.7500929756373167,-0.3966469097301364,-0.6079488694380969
1746521905121615600,1.70461572265625,0.5819686980724335,-0.6881146583691239,-0.16358195796012878
1746521905131605800,1.714605712890625,0.3567670270234346,-0.9080952337689697,0.1641397379733622
1746521905141596000,1.724595947265625,0.16996201438605785,-1.0485131006974726,0.3100779757585376
1746521905151584800,1.734584716796875,0.11017886907458305,-1.0626061426535247,0.47530960062183436
1746521905161575000,1.744574951171875,0.030984920850396155,-1.1851232459060848,0.5744217167589813
1746521905171564800,1.754564697265625,-0.03807341780662536,-1.394819158656895,0.23156821040622888
1746521905181554700,1.7645546875,-0.06038286477029323,-1.413039728871733,0.2691208192091435
1746521905191544800,1.774544921875,-0.015617255848646164,-1.3007923829600214,0.6556342382639646
1746521905201534700,1.78453466796875,-0.09253332226872443,-1.0360700909707694,0.9591104046046733
1746521905211524600,1.794524658203125,-0.4003302744179964,-0.8007461812928318,1.0098522383917123
1746521905221513700,1.804513671875,-1.0571177743703126,-0.6268482156973332,0.8112730551999062
1746521905231503600,1.814503662109375,-1.839296910098195,-0.5756200596980751,0.6225709037043153
1746521905241493800,1.82449365234375,-2.616403564867377,-0.7394323923479765,0.6330380833134055
1746521905251483600,1.834483642578125,-3.2467975634127852,-1.2774240745931864,0.6586965484440326
1746521905261473500,1.8444736328125,-3.385024715363979,-1.9344032977253198,0.48282574840560555
1746521905271463700,1.854463623046875,-3.05952434874177,-1.7671942353092134,0.07579634167514741
1746521905281453800,1.864453857421875,-2.722384982252121,-1.0077577503304929,-0.4933386668525636
1746521905291442700,1.874442626953125,-2.8048037377417088,-0.3267381647888571,-1.1054501358628273
1746521905301432800,1.884432861328125,-3.445052190825343,0.13749693798050283,-1.4360403729699551
1746521905311422700,1.894422607421875,-4.450112445700168,0.5161556980121881,-1.831835926567763
1746521905321412900,1.904412841796875,-5.199355526509881,0.9879727072779089,-2.09818750025928
1746521905331402800,1.91440283203125,-5.312448237204551,1.5678756319269538,-2.12665210885182
1746521905341392600,1.924392578125,-4.640154540562629,1.996988640975952,-2.1383307100772857
1746521905351382800,1.9343828125,-3.6956951771229503,2.3757199547871948,-1.9711247164011
1746521905361371600,1.94437158203125,-2.7891251070946455,2.624703775700927,-1.8169633516065775
1746521905371361800,1.95436181640625,-1.7210159831106662,2.708442381617427,-1.7490926152989268
1746521905381351700,1.9643515625,-0.7923030548572539,2.654052912043035,-1.6088713669210672
1746521905391341600,1.974341552734375,-0.1302975279957056,2.515356096753478,-1.3507565834380686
1746521905401331700,1.984331787109375,0.16142565670907497,2.322069174750894,-1.0562173914644866
1746521905411321600,1.994321533203125,0.4347247114509344,2.040620569692552,-0.7779910363882779
1746521905421311700,2.004311767578125,0.8020429431051015,1.8024970193587242,-0.577014655861631
1746521905431302000,2.014302001953125,1.2214666250497102,1.535212402600795,-0.4607453609574586
1746521905441290800,2.024290771484375,1.626719742822647,1.256855333817005,-0.2065446821782738
1746521905451281000,2.034281005859375,1.9047633617430924,0.9780092394072561,0.1252148179039359
1746521905461270800,2.044270751953125,2.165152666029334,0.7153818008054047,0.36917956854663786
1746521905471260700,2.0542607421875,2.457635729190707,0.5662829070322215,0.5865134288299828
1746521905481250800,2.064250732421875,2.61596926510334,0.4481097512681037,0.829923029807955
1746521905491240700,2.07424072265625,2.750590501517057,0.32170192418731747,1.027842360851541
1746521905501230600,2.084230712890625,2.7818928177535533,0.20002587486878037,1.1292722524117678
1746521905511219700,2.0942197265625,2.873990671214461,0.07241064475961029,1.1500955524709076
1746521905521209600,2.104209716796875,2.9692309143543243,-0.04886887952201068,1.1053431683570145
1746521905531199700,2.11419970703125,3.0519600509673355,-0.11785656409561633,1.0086036996353418
1746521905541189600,2.124189697265625,3.1358962252825497,-0.11629340643212198,0.8604112531825899
1746521905551179500,2.134179443359375,3.0264082610815763,0.048306496398895976,0.9060225191481411
1746521905561170000,2.144169921875,3.0722716021120546,-0.05312792520597577,0.8345990587949752
1746521905571159800,2.154159912109375,3.0846833399176594,-0.49903936271220445,0.37440921282842754
1746521905581149700,2.164149658203125,2.8844863462656734,-0.6645334379039705,0.05965604833308607
1746521905591139600,2.1741396484375,2.6983564564108846,-0.6731583506472408,-0.11860997627880424
1746521905601129500,2.18412939453125,2.5109102232605216,-0.717075233785063,-0.23961974370833486
1746521905611119600,2.19411962890625,2.185859938493371,-0.8252299766208976,-0.3683500223873183
1746521905621109500,2.204109619140625,1.779900133755803,-1.0327076288003474,-0.5886048846838996
1746521905631099600,2.214099609375,1.3869488636732101,-1.2422212437868116,-0.6869698722481727
1746521905641089800,2.22408984375,1.1057149242788553,-1.333306120812893,-0.8145764075942337
1746521905651078700,2.23407861328125,0.9460136071443557,-1.3397099965058266,-0.9841539527073502
1746521905661068800,2.24406884765625,0.7377689161151647,-1.3250675770387053,-1.0302199767030775
1746521905671058700,2.25405859375,0.47757016596496105,-1.3111001342236994,-0.9625443245761096
1746521905681048600,2.264048583984375,0.21601181789934634,-1.2778151197373866,-0.9333227601364255
1746521905691038700,2.274038818359375,-0.018904606956243512,-1.2809750450730324,-1.1003494517229497
1746521905701028600,2.284028564453125,-0.2924368859320879,-1.265754241196066,-1.3119132041722534
1746521905711017700,2.294017822265625,-0.7590455128997564,-1.2126755619592964,-1.3463679930903016
1746521905721007600,2.304007568359375,-1.261146893531084,-1.124820606765151,-1.312111649353802
1746521905730997500,2.31399755859375,-1.5844932969897985,-0.9927735316883772,-1.2605156098902224
1746521905740987600,2.323987548828125,-1.683005693668127,-0.8865141741450876,-1.2924671838156878
1746521905750977500,2.3339775390625,-1.7855021915465592,-0.8462500413611531,-1.3883090461105108
1746521905760967400,2.343967529296875,-2.1350030269593,-0.9038206251896918,-1.4348334813982246
1746521905770957600,2.35395751953125,-2.855087233301997,-0.8553232093285769,-1.3054707500346003
1746521905780946400,2.363946533203125,-3.6669133192747827,-0.9651980539552867,-1.2326296779684722
1746521905790936600,2.3739365234375,-4.376929720589518,-1.4310374501161276,-1.1513314509414136
1746521905800926700,2.3839267578125,-4.708099949541688,-1.9106024431601165,-0.956768517653644
1746521905810916600,2.39391650390625,-4.4149324112474915,-1.9928420426905153,-0.49206185184977946
1746521905820906800,2.40390673828125,-3.9722172855645415,-1.5375436220273375,0.22398118934333322
1746521905830896600,2.413896728515625,-3.689682784965634,-1.1653359378311783,0.8422636020734906
1746521905840886500,2.423886474609375,-3.808462893646955,-0.9005991058599203,1.1631138048022984
1746521905850875600,2.433875732421875,-3.886811623218655,-0.24171587573736905,1.0564534652426838
1746521905860865500,2.443865478515625,-3.479487544390559,0.7317096160762011,0.9334405412971973
1746521905870855700,2.453855712890625,-2.8216841453939674,1.636845123256743,0.8579832953833043
1746521905880845600,2.463845458984375,-2.0163556047469378,2.0313991523608563,0.6642031830362976
1746521905890835500,2.47383544921875,-1.041781089028716,2.109356398396939,0.381659987674281
1746521905900825600,2.48382568359375,-0.0650508565813303,2.1818898658186194,0.1521339140875265
1746521905910815500,2.4938154296875,0.6806120276540517,2.1914798242017626,0.07406308814175426
1746521905920804600,2.5038046875,1.029895420923829,2.1246192878499626,0.09913710444793104
1746521905930794500,2.51379443359375,1.1171253760874271,2.0829035680182275,0.23384678633008152
1746521905940784600,2.52378466796875,1.0761714344084263,2.0539958918333054,0.3649092342836782
1746521905950774800,2.53377490234375,0.9208084387391805,1.945334587714821,0.405043858936429
1746521905960764700,2.5437646484375,0.6293149711370468,1.7695859527513385,0.4632225281933322
1746521905970754600,2.553754638671875,0.3984259021013975,1.622351903001964,0.40204873224105686
1746521905980744700,2.56374462890625,0.2336632099241018,1.4289175353527068,0.2835190911894664
1746521905990733600,2.573733642578125,0.21770693137943745,1.0556436832297593,0.08449366206750274
1746521906000723700,2.5837236328125,0.42612405636608597,0.6025459874812513,-0.21889646995756773
1746521906010713600,2.593713623046875,0.7775012070447206,0.3063627546276897,-0.49484969247002153
1746521906020703500,2.603703369140625,1.216047522610426,0.09904979149065911,-0.6809507580891251
1746521906030693600,2.613693603515625,1.6991420049548147,-0.04926701199412346,-0.7662900772005319
1746521906040683500,2.62368359375,2.2957208276599643,-0.18457834956385194,-0.7272874157197773
1746521906050673400,2.63367333984375,2.8501474388122556,-0.22409261382855475,-0.5926377934617921
1746521906060662500,2.64366259765625,3.2556805425703526,-0.18560053221844136,-0.5124745983466505
1746521906070652400,2.65365234375,3.5081624347329137,-0.12928995838835836,-0.42214828460291026
1746521906080642800,2.663642822265625,3.486406529998779,-0.1471113001525402,-0.40286826846301554
1746521906090632700,2.6736328125,3.233970815065503,-0.34169319386910646,-0.38700573261640964
1746521906100622600,2.68362255859375,2.815981549838185,-0.5833118928423151,-0.42716077900268135
1746521906110612700,2.69361279296875,2.284535416778922,-0.7564336499009281,-0.5102746771495789
1746521906120601600,2.7036015625,1.7041051803201437,-0.8687041574925184,-0.5022077636152505
1746521906130591700,2.713591796875,1.299754564344883,-1.0271303401246665,-0.4981442405033856
1746521906140581600,2.72358154296875,1.027511740657687,-1.1468296094775199,-0.44589039471819997
1746521906150571500,2.733571533203125,0.9137789784938096,-1.1951942658044397,-0.2963763077402487
1746521906160561700,2.743561767578125,0.809824683022499,-1.116966605329141,-0.09843560511507093
1746521906170551600,2.753551513671875,0.553147677257657,-1.0043803097866475,-0.008335062951222062
1746521906180541400,2.76354150390625,0.2133113267689943,-1.0050173655811696,-0.0006773878049105406
1746521906190530600,2.773530517578125,-0.07985211987197399,-1.0040805231224745,0.019255247024819254
1746521906200520400,2.7835205078125,-0.387162165287137,-0.9908719358507543,0.08134696153961121
1746521906210510600,2.793510498046875,-0.6821183405637741,-1.0124623478248715,0.07563749785162507
1746521906220500500,2.80350048828125,-1.0207242724746466,-1.0219143590420483,0.16449662511963398
1746521906230490600,2.81349072265625,-1.2614929304897784,-1.0571351638965307,0.38290870909374203
1746521906240480800,2.823480712890625,-1.3715437892705202,-1.0774067483570426,0.5705350845839828
1746521906250470700,2.833470703125,-1.429012227898836,-1.047222257169336,0.7895604781508445
1746521906260459800,2.843459716796875,-1.3274457043468952,-0.9501961535260081,1.0295978992819785
1746521906270449700,2.85344970703125,-1.1814853277951478,-0.752959251788631,1.2482824435219169
1746521906280439600,2.863439453125,-1.200418576323986,-0.8250359884187579,0.987445979990065
1746521906290429700,2.8734296875,-1.551463134047389,-0.9062200875468551,0.548184794153273
1746521906300419600,2.883419677734375,-2.3658862507760525,-0.9082076811674982,0.12054576664697378
1746521906310409500,2.893409423828125,-3.285066211530566,-0.9270286284282803,-0.29838019490856676
1746521906320398600,2.903398681640625,-4.096981729352474,-1.1216364237710832,-0.5009223999798298
1746521906330388500,2.913388427734375,-4.438188783672452,-1.409877319318056,-0.9204223620310426
1746521906340378600,2.923378662109375,-4.187015051499009,-1.1073598419416695,-1.4991210985220969
1746521906350368500,2.933368408203125,-3.5871442015111445,-0.43395409240461885,-1.8163281224429606
1746521906360358400,2.9433583984375,-3.2049042950570583,0.08553411103114485,-1.8822490398570895
1746521906370348800,2.953348876953125,-3.167514183339476,0.40434422276709225,-1.7998691550731658
1746521906380338700,2.963338623046875,-3.2970833970606326,0.8285033722683787,-1.7762351815074682
1746521906390327800,2.973327880859375,-3.392328316375613,1.3960261963590979,-1.7239447300389408
1746521906400317700,2.983317626953125,-3.2072102339118715,2.0611609611570834,-1.5976932625636457
1746521906410307600,2.9933076171875,-2.6994366528630254,2.56843009981513,-1.3889450059264898
1746521906420297700,3.003297607421875,-2.129042072728276,2.9479464265242217,-1.0684217701297252
1746521906430287600,3.01328759765625,-1.9137194061368703,3.263292771139741,-0.8477535777918994
1746521906440277500,3.023277587890625,-1.9647236171871423,3.328916459172964,-0.7597168362900615
1746521906450266600,3.0332666015625,-2.096070361974835,3.121373194411397,-0.6652161594711243
1746521906460256500,3.043256591796875,-2.0772505106925965,2.83000627579838,-0.4438412071034312
1746521906470246700,3.05324658203125,-1.6230723262310027,2.5371716227203605,-0.22252240536976603
1746521906480236500,3.063236572265625,-0.6808136877059936,2.1985382182806728,-0.030010778588615356
1746521906490226400,3.073226318359375,0.5243126279175281,1.8074273153677582,0.18052421533484012
1746521906500216600,3.083216552734375,1.6730471942335365,1.4418898296505211,0.3211633968638256
1746521906510205400,3.093205322265625,2.5874171243578195,1.1302288955494761,0.4270822704063728
1746521906520195600,3.103195556640625,3.217551010662317,0.8833966266464441,0.5047259204486385
1746521906530185700,3.113185791015625,3.5621886239528653,0.6628221770066768,0.6510951335296035
1746521906540175600,3.123175537109375,3.7624487459689377,0.4541652519147843,0.7183208499319851
1746521906550165800,3.133165771484375,3.8245366610914466,0.2333436956461519,0.7448309634558856
1746521906560155600,3.14315576171875,3.662117901691794,-0.009547872807085514,0.8533964059844612
1746521906570145500,3.1531455078125,3.500397645950317,-0.17141133641153572,0.9595705694623291
1746521906580134000,3.1631337890625,3.4693320610791445,-0.2498272860005498,0.9687946171425282
1746521906590123800,3.173123779296875,3.513852170807123,-0.33709450443461536,0.8984921236433088
1746521906600114000,3.183114013671875,3.561085046625137,-0.38688700160756706,0.848264961380139
1746521906610103800,3.193103759765625,3.5161785679280757,-0.37860081929937,0.7404246913209557
1746521906620093700,3.20309375,3.411278516039252,-0.43010026652067895,0.4677321145722642
1746521906630083800,3.213083740234375,3.2379666067034005,-0.49891011030934745,0.1838901846366003
1746521906640073700,3.22307373046875,2.964048543280363,-0.553836645902507,0.014303433303721249
1746521906650062800,3.233062744140625,2.5681109508633613,-0.6315353506002575,-0.1417822140842676
1746521906660052700,3.243052734375,1.9976380447953939,-0.7223644262343645,-0.31657782263923434
1746521906670043000,3.25304296875,1.3955997876405715,-0.7412398070961237,-0.4850606313182041
1746521906680032800,3.26303271484375,0.9172942931383847,-0.7156606908120214,-0.6382813907943665
1746521906690023000,3.27302294921875,0.5169926602929831,-0.6623129123102873,-0.7717519958682357
1746521906700012800,3.2830126953125,0.1120627831250429,-0.5960575387774035,-0.8483858843460679
1746521906710002000,3.293001953125,-0.24879881973564624,-0.605085552428849,-0.905624605871737
1746521906719991800,3.30299169921875,-0.48118134219944475,-0.7201744419094175,-1.033955509969592
1746521906729982000,3.31298193359375,-0.4981716399669647,-0.7965418614707886,-1.0443735897399484
1746521906739971800,3.322971923828125,-0.4589098891586065,-0.85499573093988,-0.8524548873506486
1746521906749961700,3.332961669921875,-0.3885141644179821,-0.9569314531303942,-0.5905094396635889
1746521906759952000,3.342951904296875,-0.3876543327182531,-1.0790985739015042,-0.3722797265190631
1746521906769940700,3.352940673828125,-0.4442974264383316,-1.1029152836229652,-0.14955668401066213
1746521906779931000,3.362930908203125,-0.6888596315175295,-1.165228458868712,0.014722718161717056
1746521906789920800,3.372920654296875,-0.9386322647213935,-1.2249744870401917,0.03643843701593578
1746521906799910700,3.38291064453125,-1.1740297510921955,-1.2350035674929618,0.09153908706698566
1746521906809900800,3.39290087890625,-1.4106091407239436,-1.1040504981979726,0.19655103836506604
1746521906819890700,3.402890625,-1.7606740397602318,-1.0096522588402033,0.10964768480733036
1746521906829879800,3.4128798828125,-2.3026100026518104,-0.9995373998001217,-0.18933716146349905
1746521906839869700,3.42286962890625,-2.9201468577116727,-1.0638165413565932,-0.5142165831757709
1746521906849859800,3.43285986328125,-3.5130472841650247,-1.1845314905580133,-0.7844827364951372
1746521906859850000,3.44285009765625,-3.982936832499504,-1.4183793363340198,-0.8266416700497269
1746521906869840000,3.45283984375,-4.082596645647287,-1.7176336471959948,-0.6445707001969218
1746521906879829800,3.462829833984375,-3.71235054384768,-1.5336702877253292,-0.5366274812199175
1746521906889820000,3.47281982421875,-3.2348458443343637,-0.7974417329199611,-0.27661994279287755
1746521906899808800,3.482808837890625,-2.966409427192807,-0.14903167375586926,0.15312409416865558
1746521906909799000,3.492798828125,-3.081177962145209,0.3306080650247633,0.2791978304568678
1746521906919788800,3.502788818359375,-3.755515731835365,0.8747644073795526,0.22226780955418943
1746521906929778700,3.51277880859375,-4.702545822545885,1.3251193072259426,-0.02199216117542237
1746521906939768800,3.522768798828125,-4.7082174384415145,1.6354735426425933,-0.232745547089912
1746521906949758700,3.5327587890625,-4.0456887644886965,1.8603373600393533,-0.13663564497604966
1746521906959747800,3.542747802734375,-3.0137422562539578,2.043993407126516,-0.045041832047142086
1746521906969737700,3.55273779296875,-1.8401520656228065,2.171303297613561,0.06051346888002008
1746521906979728000,3.562727783203125,-0.6916033772677183,2.1896787661291657,0.30797176072690635
1746521906989717800,3.5727177734375,0.42347091150879856,2.139730640003085,0.4768144887594506
1746521906999708000,3.5827080078125,1.2116373049527407,2.162991104081273,0.6376997915141284
1746521907009697800,3.59269775390625,1.4641905087858438,2.133790436299145,0.8333758006103337
1746521907019687000,3.60268701171875,1.4102742096811531,2.012587045993656,0.9809515034042299
1746521907029676800,3.6126767578125,1.3292343413293362,1.8432304501548409,1.0681805087197571
1746521907039667000,3.6226669921875,1.3489151933550834,1.6586688325300811,0.956216436728835
1746521907049656800,3.63265673828125,1.4849322680413721,1.5116428725734352,0.8277014082357287
1746521907059646700,3.642646728515625,1.6640543249607085,1.3414664847843347,0.714158469555527
1746521907069636900,3.652636962890625,1.9405173966914415,1.0881174543984233,0.5871320721849799
1746521907079625700,3.662625732421875,2.229424939453602,0.8388629998497664,0.42247978157959876
1746521907089616000,3.672615966796875,2.477223642235994,0.6072251582734286,0.28773396893814207
1746521907099605800,3.682605712890625,2.6513866154432297,0.41496885796021665,0.1367925891034305
1746521907109595600,3.692595703125,2.783541754004359,0.2975762946471572,-0.021061784990131855
1746521907119585800,3.702585693359375,2.827727517211437,0.3233926172206178,0.00767798728197813
1746521907129575700,3.71257568359375,2.701084420070052,0.2689071033932268,0.12066489951461552
1746521907139565800,3.72256591796875,2.4919652842938897,0.17317699437718836,0.16789719081073998
1746521907149554700,3.7325546875,2.3624147752732036,0.10805946576781571,0.19346118259094655
1746521907159544800,3.742544921875,2.3400322630733252,0.044103528283722694,0.21139409497082232
1746521907169535000,3.752534912109375,2.4611013594746587,-0.012210242150444537,0.16094138032346963
1746521907179524900,3.76252490234375,2.6083476841837165,-0.10048062801137567,0.13993191004246472
1746521907189514800,3.7725146484375,2.7732980078876017,-0.19894253661148248,0.20246296582259238
1746521907199505000,3.7825048828125,2.9774399397730824,-0.30940701769441364,0.31212847854755815
1746521907209493800,3.79249365234375,3.2027778044223782,-0.4754232901293784,0.4304155430149287
1746521907219484000,3.80248388671875,3.3111025700628756,-0.6477936077661812,0.5389897533718496
1746521907229473800,3.812473876953125,3.2648294791877266,-0.7694196073979139,0.5908344338342547
1746521907239463700,3.822463623046875,2.939387564754486,-0.771725400122255,0.5923766217749565
1746521907249453800,3.832453857421875,2.2370909440368414,-0.7372029527954757,0.5945604686200618
1746521907259443700,3.842443603515625,1.2944804233342408,-0.7852521864976734,0.4113551609750837
1746521907269432800,3.852432861328125,0.3504448382645845,-0.9549340687680989,0.2229725237574428
1746521907279422700,3.862422607421875,-0.4584492859095335,-1.067697693638876,0.1689856436345726
1746521907289412900,3.872412841796875,-1.1832429851174353,-1.1325316925991327,0.0758198686812073
1746521907299403000,3.882403076171875,-1.8639514588832855,-1.1624814251828939,-0.0576910684030503
1746521907309393000,3.892392822265625,-2.291674767139554,-1.1651252176899463,-0.14770488213151692
1746521907319382800,3.9023828125,-2.4411148025006053,-1.1090289441976695,-0.005009937116503715
1746521907329372000,3.912371826171875,-2.4708915166050196,-1.0259051091786473,0.17178024278916418
1746521907339361800,3.92236181640625,-2.4202894566148516,-1.0105876399941742,0.27853680926486846
1746521907349352000,3.93235205078125,-2.2779642216950653,-0.9460338462147861,0.3798398595750332
1746521907359341800,3.942341796875,-2.1093337481737136,-0.8770267993535846,0.4453337106835097
1746521907369331700,3.952331787109375,-2.0296219135552644,-0.8790683151185512,0.48142099617421624
1746521907379321900,3.96232177734375,-2.161342167830467,-0.8610900292269885,0.5107344766810537
1746521907389310700,3.972310791015625,-2.497364512988925,-0.8643485926315188,0.5444409314498305
1746521907399300900,3.98230078125,-2.956881135869026,-0.9702613286942243,0.6157756906062364
1746521907409290800,3.992290771484375,-3.42717225074172,-1.2120816877193747,0.589522766713798
1746521907419280600,4.00228076171875,-3.682463939628005,-1.4467257253743708,0.48317441571280356
1746521907429270800,4.012270751953125,-3.597217851758003,-1.6350335437901318,0.3383612729674205
1746521907439260700,4.0222607421875,-3.195219936388731,-1.6614572942048311,0.18862630978040396
1746521907449249800,4.032249755859375,-2.667503637507558,-1.3532899013079702,-0.024095088271424172
1746521907459239700,4.04223974609375,-2.36158241610229,-0.77653477316536,-0.30100228704046456
1746521907469229800,4.052229736328125,-2.4992875900059937,-0.4346902977246791,-0.43280652980469164
1746521907479220000,4.062219970703125,-2.8826901104986664,-0.30214583105240017,-0.6715532535381615
1746521907489209900,4.0722099609375,-3.3218425752639766,0.06137227766644209,-0.9350794676106423
1746521907499199700,4.08219970703125,-3.5183851380616424,0.6463970388412476,-0.9465965215988457
1746521907509188900,4.09218896484375,-3.157947313570976,1.1756627591215074,-1.0142333030201494
1746521907519178800,4.1021787109375,-2.341061606121063,1.6258981973066926,-1.0888307902995495
1746521907529169000,4.1121689453125,-1.3615367745190858,1.9265815180584787,-1.0465750453069806
1746521907539158800,4.12215869140625,-0.505097639837861,2.0586784966915843,-0.9470420734092593
1746521907549148700,4.132148681640625,0.10507540845572948,2.0920355535008013,-0.9439449841767549
1746521907559138800,4.142138916015625,0.48740766936838625,1.9771940994426607,-0.9486312422968447
1746521907569127700,4.152127685546875,0.6980114907443523,1.7638456555336712,-0.8223873736061156
1746521907579118000,4.1621181640625,0.7955114955097436,1.629005077280849,-0.7049675934925675
1746521907589108000,4.17210791015625,0.9095575614064931,1.5467971880629658,-0.5638630960067734
1746521907599097900,4.182097900390625,1.1897060436517,1.4608195710480212,-0.40512441335935145
1746521907609088000,4.192087890625,1.478168180733919,1.378492877756059,-0.2930086579380557
1746521907619078000,4.202077880859375,1.7244558944314716,1.3102777119249105,-0.22872447488028555
1746521907629067000,4.21206689453125,2.004085321238637,1.2891225495629013,-0.20769133146274835
1746521907639057000,4.222056884765625,2.230177803647518,1.2318475876800714,-0.19658201802521943
1746521907649046800,4.232046875,2.3884862051188946,1.163791850194335,-0.11706545025054364
1746521907659037000,4.242036865234375,2.4638848527133463,1.0673449346784503,-0.04509158947300165
1746521907669026800,4.25202685546875,2.5193419515192508,0.9466025860134512,-0.031679661648906766
1746521907679016000,4.262015869140625,2.5817694738596675,0.8431487143449485,-0.0021923224125057457
1746521907689005800,4.272005859375,2.6277906358003613,0.6870454217024147,-0.002290832617226988
1746521907698996000,4.281995849609375,2.66261294285655,0.49235908123068506,0.03934078912762925
1746521907708986000,4.291986083984375,2.6936685908555984,0.37266492644436655,0.058368273544870314
1746521907718976000,4.30197607421875,2.79722891857326,0.30646150229442864,-0.0019073131923563777
1746521907728966000,4.3119658203125,2.949594485992193,0.23025522811152038,-0.05225298726866021
1746521907738955000,4.321955078125,3.0847575741976496,0.10547949574459344,-0.008995682284422218
1746521907748945000,4.33194482421875,3.1271985395640134,-0.09043437722809612,0.037376539849955585
1746521907758935000,4.34193505859375,3.0834318785518406,-0.28805688074957575,0.01730537333237007
1746521907768925000,4.351925048828125,2.9609195976048706,-0.45829099007528273,-0.0728275001985021
1746521907778914800,4.361914794921875,2.6786481318563222,-0.6015741467744111,-0.2878271453806199
1746521907788905000,4.371905029296875,2.3140461734235287,-0.7308776952967048,-0.4983601117437705
1746521907798893800,4.381893798828125,1.9289111300498245,-0.80325334180817,-0.5899084050305188
1746521907808884000,4.391884033203125,1.5002847354739903,-0.7958586284469813,-0.6685923579059541
1746521907818873900,4.401873779296875,0.9026268853604793,-0.7239781450413167,-0.7150126752320677
1746521907828863700,4.41186376953125,0.1764689120620489,-0.6348082347910851,-0.7846753364577889
1746521907838854100,4.421854248046875,-0.44520401988923547,-0.6300248729720711,-0.8827608860261738
1746521907848844000,4.431843994140625,-0.8725070569068193,-0.7434540490794926,-0.9935090794213116
1746521907858833200,4.441833251953125,-1.0719798279374837,-0.8904263791527599,-1.2062460403684525
1746521907868823000,4.451822998046875,-1.089739941033721,-1.1182999728247522,-1.2890595673292875
1746521907878813000,4.46181298828125,-1.0182488222718238,-1.3681322272613643,-1.1839473339945077
1746521907888803000,4.471802978515625,-0.9774883573383092,-1.4811609328091144,-0.9713779116339981
1746521907898793000,4.48179296875,-1.060464746710658,-1.572138550068438,-0.9353280355442315
1746521907908782800,4.491782958984375,-1.1186311044752597,-1.7425478698305785,-0.9665317137118429
1746521907918772000,4.50177197265625,-1.1585650554567575,-1.7364973376199602,-0.8866613275308162
1746521907928761900,4.511761962890625,-1.1635387522161007,-1.6112530013605952,-0.696153441787511
1746521907938752000,4.521751953125,-1.2301584655493498,-1.4633436826981603,-0.4355200630797073
1746521907948742000,4.531741943359375,-1.4304600886195897,-1.2836482098050415,-0.35755233218222854
1746521907958731800,4.541731689453125,-1.7960329379111528,-1.0122120993908494,-0.33587774905599654
1746521907968722000,4.551721923828125,-2.355286530828476,-0.7418906722202897,-0.37225119454432276
1746521907978710800,4.561710693359375,-3.027406624469161,-0.5452792454374954,-0.5249382855352014
1746521907988701000,4.571700927734375,-3.6781875774830577,-0.47689299735575913,-0.6888949220266193
1746521907998690800,4.58169091796875,-4.13479211230874,-0.6019960619809106,-0.669547831999883
1746521908008681000,4.591680908203125,-4.221649727028608,-0.7844194620005785,-0.5672601545665413
1746521908018671000,4.601671142578125,-3.945789881888032,-0.8880956711828708,-0.5174163655977696
1746521908028660000,4.611659912109375,-3.193386291220784,-0.645818069909513,-0.5546851890232414
1746521908038650000,4.621650146484375,-2.437207273668051,-0.3014625249633565,-0.5325304211646318
1746521908048640000,4.631639892578125,-2.0496908881157636,-0.45136528246533125,-0.04074289274420589
1746521908058630000,4.6416298828125,-2.057742677146196,-0.8596718329921365,0.29354031712934375
1746521908068620000,4.6516201171875,-2.272988771370053,-0.6600574615336954,0.09528857579361646
1746521908078610000,4.66160986328125,-2.2906214586943388,-0.0915757658155635,0.20695139981564134
1746521908088599000,4.67159912109375,-2.127960707232356,0.5741165232673288,0.6448954021066426
1746521908098589000,4.6815888671875,-1.7077607802182435,1.27673638458997,0.9559078822363167
1746521908108578800,4.691578857421875,-1.116866432890296,1.8626982439517974,1.0611515599310397
1746521908118569000,4.70156884765625,-0.6992214510560035,2.2799834525629876,1.001012148527801
1746521908128558800,4.711558837890625,-0.5848112280219793,2.4614745767012236,0.8718295960366725
1746521908138548700,4.721548828125,-0.6625842035323382,2.4222142871975896,0.8075648483317345
1746521908148537900,4.731537841796875,-0.6480646797925234,2.343863219538331,0.6917191126018762
1746521908158527700,4.74152783203125,-0.28481062883734704,2.285657991068065,0.5924652499064803
1746521908168518100,4.75151806640625,0.23369185149669647,2.115311653539538,0.5293002070717513
1746521908178508000,4.761508056640625,0.9155588476479053,1.8860911022379994,0.4363998781215399
1746521908188498000,4.771497802734375,1.6378765121310948,1.686617308294028,0.3108122813824564
1746521908198487000,4.781487060546875,2.3164129025548696,1.5014254299417138,0.2592198951806873
1746521908208477000,4.791476806640625,2.8069021713256834,1.3368670281648636,0.2344287144038826
1746521908218467000,4.801467041015625,3.114476420634985,1.1993866759929805,0.07407689747139812
1746521908228457000,4.81145703125,3.1520985875427723,0.9983705479778349,-0.08899082735627889
1746521908238446800,4.82144677734375,3.07778188996613,0.8410721272666006,-0.19095051494427023
1746521908248437000,4.83143701171875,2.9966403148055076,0.7232248424559832,-0.15407478248961268
1746521908258425900,4.84142578125,2.8876310740321873,0.5792752942699939,-0.13545944080352781
1746521908268416000,4.851416015625,2.7991847288161513,0.3946670610245317,-0.23872524255402386
1746521908278406000,4.861406005859375,2.7357033135086297,0.2273226087257266,-0.30546558659225703
1746521908288395800,4.871395751953125,2.7223125015378,0.057531347796693444,-0.23456651543937623
1746521908298386000,4.881385986328125,2.8162720572173594,-0.031014293075352906,-0.09379727778993546
1746521908308376000,4.8913759765625,2.979708469226956,-0.08246686894763261,0.008406886078417301
1746521908318365000,4.901364990234375,3.031781186291575,-0.16054383237324654,0.18520028085447846
1746521908328355000,4.91135498046875,3.0309435664236544,-0.2952066794389859,0.3494934558238834
1746521908338345000,4.921344970703125,2.8502333635300396,-0.45585784464422613,0.3922990167189389
1746521908348335000,4.931335205078125,2.3959885435730217,-0.6481579840991646,0.35397388917356726
1746521908358325000,4.941324951171875,1.687757856631279,-0.9072598058581351,0.2540095401212573
1746521908368314000,4.951314208984375,0.9249480227619409,-1.1222773520231246,-0.06318308994807302
1746521908378304000,4.961303955078125,0.3140957600325346,-1.209835662358254,-0.3267118613038212
1746521908388294000,4.9712939453125,-0.08354337560534476,-1.2550533989615738,-0.33057197079807515
1746521908398284000,4.981283935546875,-0.29508126296103,-1.2377417602851986,-0.28240356769561764
1746521908408274000,4.99127392578125,-0.31504034740626813,-1.1897295706577597,-0.23397359104752538
1746521908418263800,5.001263916015625,-0.3392430607706308,-1.1750449194841086,-0.1195379413112998
1746521908428253000,5.0112529296875,-0.3780751879900694,-1.1975459434971212,-0.004868921210616827
1746521908438242800,5.021242919921875,-0.3916600612282753,-1.217400983045995,0.0593342325001955
1746521908448233000,5.03123291015625,-0.3875800984382629,-1.2259697816878556,0.13648169652335346
1746521908458222800,5.041222900390625,-0.4361187961578369,-1.2907029506221412,0.13950009449645875
1746521908468212700,5.051212646484375,-0.5627671539962291,-1.249835518182814,0.14505685184076428
1746521908478203100,5.061203125,-0.7390531107068061,-1.1446537998083979,0.0783960758447647
1746521908488191700,5.071191650390625,-1.011623851174116,-1.0817824061580001,-0.07763473608344792
1746521908498182100,5.08118212890625,-1.351683489024639,-0.9927173445217311,-0.3071101023962721
1746521908508172000,5.091172119140625,-1.7801193294644355,-0.8967330780815332,-0.5127374140013009
1746521908518162000,5.101161865234375,-2.3758733917832373,-0.9495746606267988,-0.49939453282542523
1746521908528152000,5.111152099609375,-2.929950458845496,-1.107857635395974,-0.4088005811214447
1746521908538141000,5.121140869140625,-3.351705214086175,-1.2015190849117934,-0.3242073311369866
1746521908548131000,5.131131103515625,-3.5716122858583925,-1.2962787049278617,-0.32984537355657667
1746521908558121000,5.141120849609375,-3.6412738511055704,-1.597085505928844,-0.37254546478316186
1746521908568110800,5.15111083984375,-3.487574404734373,-1.891802173361182,-0.43761710842419416
1746521908578101500,5.1611015625,-3.0424884582668543,-1.8940322705008088,-0.4813644436813891
1746521908588091400,5.17109130859375,-2.587995801028609,-1.3370090669840573,-0.5987036328393965
1746521908598080500,5.18108056640625,-2.3814321949541566,-0.540344967373088,-0.5448139294806867
1746521908608070400,5.1910703125,-2.5242729781806466,-0.07939345285166055,-0.21756949567012487
1746521908618060300,5.201060302734375,-2.957177488467097,0.3526550251273438,-0.1891038641642779
1746521908628050700,5.21105078125,-3.5743683065682648,0.8954073093704878,-0.3378008260730654
1746521908638040600,5.22104052734375,-3.7678766162365673,1.4576954476781188,-0.477219087504968
1746521908648029400,5.231029541015625,-3.337295580461621,1.9927517340585588,-0.67416241312325
1746521908658019600,5.24101953125,-2.5624784979343413,2.4020935824498535,-0.8707229499690234
1746521908668009500,5.251009521484375,-1.6618185287326572,2.7082772541835904,-0.9845984085392206
1746521908677999600,5.26099951171875,-0.820563519179821,2.9192276970401405,-0.9522829697374254
1746521908687989500,5.270989501953125,-0.16949848852753638,2.9315760142207146,-0.8059594589617103
1746521908697978600,5.280978515625,0.3538689674943685,2.7459219251841307,-0.6939853770334273
1746521908707968500,5.290968505859375,0.7853244480162859,2.4377608158975836,-0.5769008932888507
1746521908717958400,5.30095849609375,1.2150269473910331,2.101922887395322,-0.5157852572645992
1746521908727948500,5.310948486328125,1.6969582311749458,1.81837614101395,-0.505934236792475
1746521908737938400,5.3209384765625,2.1066630676597358,1.5787024386286734,-0.44657764632999897
1746521908747928300,5.33092822265625,2.4798142432510852,1.4386492402940987,-0.39088951524719595
1746521908757917400,5.34091748046875,2.7384336152553557,1.354359722496569,-0.32960703475605696
1746521908767907300,5.3509072265625,2.7946564377367493,1.2609068011648952,-0.29009952902570363
1746521908777897500,5.3608974609375,2.7136814513146876,1.1301151329766959,-0.2004979858925566
1746521908787887600,5.3708876953125,2.485014734503627,0.9755660109736025,-0.046758792032860215
1746521908797877500,5.38087744140625,2.1348604036182164,0.796189175575599,0.11054028626549989
1746521908807866600,5.39086669921875,1.7455150490731,0.585308108160831,0.20443280459083615
1746521908817856500,5.4008564453125,1.4164222109168767,0.4294997433442622,0.1698483614111319
1746521908827846400,5.410846435546875,1.1960042670130728,0.29019929960574953,0.15788853209149092
1746521908837836500,5.42083642578125,1.1557757169991731,0.11456205259487032,0.09116787913441657
1746521908847826400,5.430826416015625,1.2879665113955736,-0.015736754042468964,0.03227985603176057
1746521908857816600,5.440816650390625,1.6516057622760534,-0.13157178571522235,-0.020833273463882505
1746521908867805400,5.450805419921875,2.097058203968406,-0.21005049834214148,0.023085253641754386
1746521908877795600,5.460795654296875,2.522608844360709,-0.21996928682085126,0.20989198331218212
1746521908887785500,5.470785400390625,2.87455298127234,-0.19044983541313557,0.4038379902780056
1746521908897775400,5.480775390625,3.050056847694516,-0.24831673530712722,0.4705078263632953
1746521908907765500,5.490765625,2.878220856130123,-0.3459937406072393,0.4497928455168381
1746521908917754400,5.50075439453125,2.4374580335587264,-0.5205320864655077,0.25106040799207985
1746521908927744500,5.51074462890625,1.8651801238954067,-0.7676613655537367,-0.025796120035648344
1746521908937734400,5.520734375,1.4005407511740922,-0.9463630781691521,-0.3279984670482576
1746521908947724300,5.530724365234375,1.1159241836041212,-0.9876715323742479,-0.5149838046886026
1746521908957714400,5.54071435546875,0.849620102316141,-1.0527367828071117,-0.5102379253357648
1746521908967704600,5.55070458984375,0.6009791034907103,-1.154864155112207,-0.5671191021280363
1746521908977693400,5.560693359375,0.4705348605006933,-1.2690326783448458,-0.6765287038631737
1746521908987683600,5.57068359375,0.3827729904174804,-1.354542677848041,-0.7289322603173554
1746521908997673500,5.580673583984375,0.229951495924592,-1.4088918154120444,-0.8002750566497444
1746521909007663600,5.59066357421875,-0.06209376034140587,-1.377786483052373,-0.8143442062735557
1746521909017653500,5.600653564453125,-0.4120663049191236,-1.2333996394276618,-0.7390871591068804
1746521909027642400,5.610642333984375,-0.7482932327389716,-1.1330081510044634,-0.5977147313999012
1746521909037632500,5.620632568359375,-1.1077075594007968,-1.0353870040774344,-0.5185653164371847
1746521909047622400,5.630622314453125,-1.472767198473215,-0.9689167822174727,-0.5545388393551111
1746521909057612500,5.640612548828125,-1.8560808716386556,-0.9699983669091016,-0.5591612384587527
1746521909067602400,5.6506025390625,-2.154460591623187,-0.9929208312045782,-0.5491408527690917
1746521909077591300,5.66059130859375,-2.3553712865024803,-1.0261961280144751,-0.5528817563304678
1746521909087581400,5.67058154296875,-2.568707747712731,-1.0281388595800847,-0.5450215078167617
1746521909097571300,5.6805712890625,-2.763199807721376,-1.0638071890063583,-0.592126190677844
1746521909107561500,5.6905615234375,-2.9303397504240274,-1.0673594746604562,-0.7233011225625873
1746521909117551600,5.700551513671875,-2.967221328097582,-1.039603891120106,-0.7992620802149176
1746521909127540200,5.710540283203125,-2.9424411071062084,-1.1503791186526418,-0.7242468789801001
1746521909137530600,5.720530517578125,-2.80592017455101,-1.5025455200128257,-0.5183106840889901
1746521909147520500,5.7305205078125,-2.4122663091570136,-1.8930539269879458,-0.3512195489641279
1746521909157510400,5.740510498046875,-2.033981277808547,-1.585499259161949,-0.21687210625680162
1746521909167500500,5.75050048828125,-1.8419167372077703,-0.9042130585733801,0.08185361415380611
1746521909177490400,5.760490478515625,-1.839401539516449,-0.576696164496988,0.37801958534531294
1746521909187479600,5.7704794921875,-2.319538341099024,-0.35950251640193165,0.43981721228435633
1746521909197469400,5.780469482421875,-2.8916216049730776,0.03398234910070896,0.1134952636135742
1746521909207459300,5.790459228515625,-2.774655267715454,0.5763089918103069,0.00432785487016663
1746521909217449500,5.800449462890625,-2.422253450164199,1.3625212555117905,-0.08148246102016418
1746521909227439400,5.810439453125,-1.961461985042691,2.183326912884414,-0.3207685523273423
1746521909237428500,5.820428466796875,-1.4123340648204088,2.742091845501959,-0.5530234663560987
1746521909247418400,5.83041845703125,-0.9847580560803413,2.9444159143105146,-0.7708363423280418
1746521909257408300,5.840408203125,-0.8047364199727773,2.855955248308182,-0.8957721971601247
1746521909267398400,5.8503984375,-0.767181473082304,2.689293736772239,-0.9318754108723253
1746521909277388500,5.860388427734375,-0.7132078908324241,2.4435545968681573,-0.9455021504908799
1746521909287377400,5.87037744140625,-0.5816162313729524,2.211288686521351,-0.8475942955769598
1746521909297367600,5.880367431640625,-0.29417583855390544,2.0076684404224157,-0.6713989397592842
1746521909307357400,5.890357421875,0.23427929599583147,1.8481383882015943,-0.528182382022962
1746521909317347600,5.90034765625,0.8560387371867895,1.645179528620839,-0.33023809920120983
1746521909327337500,5.91033740234375,1.5049053810119628,1.42657097222656,-0.11759334658216684
1746521909337326600,5.92032666015625,2.076075621694326,1.2225780934229493,-0.0037756460811942815
1746521909347316500,5.93031640625,2.4399381599366663,1.0059443442329763,-0.082328373792395
1746521909357306400,5.940306396484375,2.613258252578974,0.7971046829853207,-0.2100613850623369
1746521909367296500,5.950296630859375,2.5724486878067254,0.5735561859708279,-0.34411870398297906
1746521909377286400,5.960286376953125,2.442368601953983,0.35361601564660666,-0.5504304176555946
1746521909387276300,5.9702763671875,2.350907877352834,0.1764946310251951,-0.645355420833826
1746521909397265400,5.980265380859375,2.334447740939259,0.013259367610886693,-0.640913054472208
1746521909407255300,5.99025537109375,2.406418752172589,-0.08377798807881771,-0.5918692933073267
1746521909417245400,6.000245361328125,2.5512726287871597,-0.18358327411189673,-0.5326440376069397
1746521909427235300,6.0102353515625,2.783698405870795,-0.23737689668498932,-0.4833346112431958
1746521909437225200,6.02022509765625,3.0057553491532802,-0.24048509183339772,-0.42666864810418337
1746521909447214300,6.03021435546875,3.185965201309323,-0.1939388831052929,-0.4434304708780721
1746521909457204200,6.040204345703125,3.168686149728298,-0.1550146936882287,-0.4405144373008981
1746521909467194600,6.050194580078125,2.928202738395333,-0.1931395494211465,-0.4047860847830772
1746521909477184500,6.0601845703125,2.576861828073859,-0.32634982305839655,-0.3792324317337945
1746521909487174400,6.07017431640625,2.159008756446838,-0.47735301608294245,-0.43712709641754627
1746521909497163500,6.08016357421875,1.600872769382596,-0.5967021933564916,-0.5394845146188512
1746521909507153400,6.0901533203125,1.037911554118991,-0.6999236810412257,-0.6048349021360278
1746521909517143600,6.1001435546875,0.6619874066829681,-0.8740005103349685,-0.5719484585132449
1746521909527133400,6.110133544921875,0.5031348153322934,-0.9530418983459472,-0.3894538929535076
1746521909537123300,6.120123291015625,0.522410593688488,-0.958097282039374,-0.19604619411546736
1746521909547112400,6.130112548828125,0.6686006873428821,-0.9590735797256231,-0.07663122159671037
1746521909557102300,6.140102294921875,0.6846130799889564,-0.9638830258339643,0.012923559785261749
1746521909567092500,6.150092529296875,0.4785942483156919,-0.9705705407738685,0.04101213813964277
1746521909577082400,6.160082275390625,0.14642857858538627,-0.9642632573232054,-0.011987630642019211
1746521909587073000,6.170072998046875,-0.057305357021093364,-1.0014000518668442,-0.08238488975260407
1746521909597062100,6.180062255859375,-0.11031564719676971,-1.0291493517968804,-0.05377294511124491
1746521909607052000,6.190052001953125,-0.18503683392107487,-0.9907846228934823,0.0426993971068412
1746521909617042200,6.200042236328125,-0.470908369988203,-0.9194653535671532,0.10769633154384792
1746521909627032000,6.210031982421875,-1.0865800156980752,-0.7815119039908051,0.07428352595940232
1746521909637022000,6.22002197265625,-1.835783349019289,-0.6627998921096324,0.010096811926737427
1746521909647012400,6.230012451171875,-2.514022802323103,-0.6681864805188029,0.01030833578556776
1746521909657001000,6.2400009765625,-3.292884191805124,-0.7015088313408195,-0.012247267958894371
1746521909666991400,6.249991455078125,-3.918196357041597,-0.8106225554019212,-0.02389240530617535
1746521909676981200,6.259981201171875,-4.014488155061006,-1.1594956143051385,0.1450306214209646
1746521909686971100,6.26997119140625,-3.8290164368540047,-1.4635263457886873,0.14358086100406944
1746521909696961300,6.279961181640625,-3.4505139633625745,-1.2152587103202939,-0.08142981751747429
1746521909706950100,6.2899501953125,-3.0324563090741634,-0.6855914235018193,-0.15505071484968067
1746521909716940300,6.299940185546875,-2.7259049730718132,-0.34465076503306624,-0.01112323236502707
1746521909726930200,6.30993017578125,-2.6962773120492693,0.0775960845734924,0.12913695978373288
1746521909736920000,6.319920166015625,-3.1847482267349956,0.694111414565891,0.16906798815578222
1746521909746910200,6.32991015625,-3.760974581763148,1.2468738918982445,0.09902100378759204
1746521909756899000,6.339899169921875,-4.274679306426644,1.7250525451503693,-0.1700947739202529
1746521909766889200,6.34988916015625,-4.552570949655771,2.1056655810549856,-0.48550125122517346
1746521909776879000,6.359879150390625,-4.104973897150159,2.3969090194188056,-0.7419669523268938
1746521909786869000,6.369868896484375,-3.1366660406112667,2.5405232712358234,-1.0434423002392053
1746521909796859100,6.379859130859375,-2.1635200963914394,2.5149594986513257,-1.2204380126543342
1746521909806849300,6.389849365234375,-1.2060685649096965,2.3902257422626016,-1.203287117497623
1746521909816838100,6.399838134765625,-0.21987959924340247,2.232282959233224,-1.0689618683557958
1746521909826828300,6.409828369140625,0.7371884858787059,2.0228043424949047,-0.9935070335946976
1746521909836818200,6.419818115234375,1.6502800666302442,1.7188709339059889,-0.9360888638488948
1746521909846808300,6.429808349609375,2.3206910182654856,1.416785491271317,-0.7949843298304825
1746521909856798200,6.439798095703125,2.6832003883332014,1.220621333331987,-0.5358332621023059
1746521909866787000,6.449787109375,2.935387096941471,1.077795017022267,-0.25354871767647563
1746521909876777200,6.459777099609375,3.0976433592557906,0.9006526626780629,0.04611052072457969
1746521909886767000,6.46976708984375,3.1793951752692458,0.717361503380537,0.3218208743918687
1746521909896757200,6.47975732421875,2.958792522448301,0.6234473942779004,0.6181036951623856
1746521909906747100,6.4897470703125,2.4988702413767574,0.5505657710056752,0.715648781178519
1746521909916736000,6.499736083984375,2.143592576128244,0.38790702883768824,0.6047180708233266
1746521909926726100,6.50972607421875,1.9572353072583675,0.14574644154012203,0.5458009312240406
1746521909936716000,6.519716064453125,1.9518939462304115,-0.017392010436207056,0.5402034034779295
1746521909946706200,6.5297060546875,2.0066583865970373,-0.1533580125223845,0.5035633794752881
1746521909956696000,6.539696044921875,2.1247207023978234,-0.30761476398278026,0.5027047533519565
1746521909966686000,6.54968603515625,2.3468635703980922,-0.4536449909003451,0.44519455794114615
1746521909976675000,6.559675048828125,2.546285488024354,-0.5854695458002388,0.338980427779071
1746521909986665000,6.5696650390625,2.6837854947447775,-0.73477499499619,0.3274011587422341
1746521909996655000,6.579655029296875,2.69029005433321,-0.7882450847033411,0.38974666535500435
1746521910006645200,6.589645263671875,2.5235961018323896,-0.7689562276698648,0.3803679385697469
1746521910016635100,6.59963525390625,2.33715057015717,-0.8155651263706386,0.1453843667620793
1746521910026624300,6.609624267578125,2.073563931134343,-0.9078214583288877,-0.13799666766356675
1746521910036614100,6.6196142578125,1.7560557323098183,-0.9529049740932881,-0.34828671038262543
1746521910046604000,6.62960400390625,1.3730799127966165,-0.978173416993022,-0.48519660572279244
1746521910056594200,6.63959423828125,0.9393868824809789,-1.0587396764837205,-0.6193300220869481
1746521910066584000,6.649583984375,0.5350859508663416,-1.1390738807842136,-0.7975802646078168
1746521910076574200,6.65957421875,0.23866321016848085,-1.1774452586241066,-0.8327087150037288
1746521910086563000,6.66956298828125,0.03521919741928577,-1.121739591884613,-0.6488339105993509
1746521910096553000,6.679552978515625,-0.12442717465758323,-1.1217883263971655,-0.4787621522285044
1746521910106543000,6.689543212890625,-0.36696518043279647,-1.1764992099456488,-0.37380982216317205
1746521910116533000,6.699532958984375,-0.6003337913244963,-1.23004623734653,-0.24249431276395916
1746521910126523100,6.709523193359375,-0.8006587952703237,-1.283015903250873,-0.11712550987470895
1746521910136512000,6.719511962890625,-0.9372504549741745,-1.2603930064238607,0.013356032918393611
1746521910146502100,6.729502197265625,-1.0146125115960836,-1.225868367139995,0.08652626387365162
1746521910156492300,6.7394921875,-1.0290092857390643,-1.1666152370519935,0.07947418993767351
1746521910166482200,6.749482177734375,-1.0914420687764883,-1.059576784894988,0.031167620473541317
1746521910176472000,6.75947216796875,-1.238058278888464,-0.9537113220401108,-0.066610324450396
1746521910186461200,6.769461181640625,-1.5158704271405934,-0.8409038580276071,-0.11549027335569262
1746521910196451000,6.779451171875,-2.016043470057845,-0.7786802607614547,-0.28567637882120905
1746521910206441200,6.789441162109375,-2.8294828364461657,-0.8887780274238437,-0.6154717392235994
1746521910216431000,6.79943115234375,-3.6144314368873833,-1.232350568766147,-0.8219103306788951
1746521910226421000,6.8094208984375,-4.021911583060026,-1.7388086833022534,-0.6589240735895932
1746521910236411100,6.8194111328125,-3.8064778573095794,-2.132956323562562,-0.39386341649144885
1746521910246400000,6.82939990234375,-3.175652481609583,-1.9080613803751765,-0.18649433925300835
1746521910256390100,6.83939013671875,-2.884837643921375,-1.0755677694268524,0.26846242836564777
1746521910266380000,6.849380126953125,-2.875069114100933,-0.25387005858533085,0.7153407381426543
1746521910276370200,6.8593701171875,-3.362061188405752,0.31831125883571804,0.8943531241424382
1746521910286360000,6.869360107421875,-4.792053074991703,0.8617479086138308,0.6092410281404852
1746521910296349000,6.879348876953125,-5.5357285848021505,1.570505103647709,0.2742721740903333
1746521910306339000,6.889339111328125,-4.695004905647039,1.936169869006425,0.24757702285572886
1746521910316329200,6.8993291015625,-3.337597778278589,2.094852364487201,0.1922949883557856
1746521910326319000,6.909319091796875,-1.9291332483679056,2.3455223849222064,0.2163105085849762
1746521910336309200,6.919309326171875,-0.43388592253923414,2.5201047525852918,0.3097865915965289
1746521910346298000,6.929298095703125,0.9953373177617788,2.5343618259966374,0.5240484240233898
1746521910356288300,6.939288330078125,2.0564391933321953,2.3507103089541195,0.8509771429482847
1746521910366278100,6.949278076171875,2.5967694745928047,2.0357715222261845,1.1671185103990136
1746521910376268000,6.95926806640625,2.6633932795792816,1.743250903533399,1.417067230822146
1746521910386258200,6.969258056640625,2.428470424982905,1.590721669985354,1.5919629022181032
1746521910396247000,6.9792470703125,2.193306747367978,1.5007571752913296,1.6120876986190675
1746521910406237200,6.9892373046875,1.9859248106479643,1.335567928265035,1.524920579558611
1746521910416227000,6.99922705078125,1.8407506160378455,1.0854347181204707,1.3404898948371409
1746521910426217000,7.009217041015625,1.8026573244869708,0.8771414387091994,1.0858673373840748
1746521910436207000,7.01920703125,1.605081911510229,0.6941142641101032,0.7073380489509552
1746521910446197000,7.029197021484375,1.3715116405665875,0.4448676275417208,0.188102651232481
1746521910456186000,7.03918603515625,1.2660212215691804,0.1752451424207538,-0.16066994297094642
1746521910466176000,7.049176025390625,1.3196546120792627,-0.005495455611124634,-0.2724909532293677
1746521910476166000,7.059165771484375,1.5176660783857105,-0.11418649728074669,-0.30291458693519235
1746521910486156300,7.06915625,1.820271891632676,-0.24430625755675137,-0.2744621071718633
1746521910496146200,7.079146240234375,2.1445675586402415,-0.35011282983124253,-0.14373539397865534
1746521910506135300,7.08913525390625,2.393793079355359,-0.3977784710433334,-0.015801087982952593
1746521910516125200,7.099125244140625,2.617567347949743,-0.45646761057302354,0.07650185959599912
1746521910526115000,7.109114990234375,2.7391876484930515,-0.6050096011158078,0.17016696237362922
1746521910536105200,7.119105224609375,2.859738273978233,-0.7434086755678058,0.2020277892757207
1746521910546095000,7.12909521484375,2.976469633436203,-0.8154023370243608,0.25002302776835855
1746521910556084200,7.139084228515625,3.02781871240139,-0.8903022413164376,0.2657891905684024
1746521910566074000,7.14907421875,2.944637740367651,-0.9784037186175584,0.2471589435741305
1746521910576064000,7.15906396484375,2.7684768713414667,-0.9718184950083494,0.2831227488156408
1746521910586052900,7.169052978515625,2.3637854791045187,-0.9501241112031042,0.36303185957185924
1746521910596042800,7.179042724609375,1.7336282119244335,-0.9679220720916986,0.3435508409671485
1746521910606032000,7.189031982421875,0.9962719682633876,-1.0515690542019902,0.20237024603784082
1746521910616021800,7.199021728515625,0.18952187038064003,-1.2098000065229833,-0.03457673479728401
1746521910626012000,7.209011962890625,-0.626904987385869,-1.2932985200732945,-0.21253836963512002
1746521910636002000,7.219001953125,-1.2135329094409941,-1.334857441908121,-0.2643970786228776
1746521910645992000,7.228991943359375,-1.3487982889771462,-1.306104810154438,-0.25471681160777804
1746521910655982000,7.238982177734375,-1.2435942857056856,-1.2128811675339937,-0.2813317737456411
1746521910665971000,7.248970947265625,-1.227638591682911,-1.146627584099397,-0.1475995220609009
1746521910675961000,7.258961181640625,-1.3246902681589126,-1.1163156671397387,-0.046512233393266794
1746521910685951000,7.268950927734375,-1.569251304194331,-1.049906089425832,-0.07955839762240648
1746521910695940900,7.27894091796875,-2.0346715981602665,-0.9631535425156355,-0.0825984959706664
1746521910705931000,7.288930908203125,-2.586257432928681,-0.883762902675569,-0.06087291330955922
1746521910715920000,7.298919921875,-3.2206869706004855,-0.7757661999456584,-0.12378580801412463
1746521910725910000,7.308909912109375,-3.960777023139596,-0.9265534851972013,-0.07316036714836954
1746521910735900000,7.31889990234375,-4.568566391167044,-1.117671173401922,-0.009253200709447264
1746521910745889800,7.328889892578125,-4.841244683662056,-0.9252880683712661,0.034723011400178076
1746521910755880000,7.3388798828125,-4.848569327461719,-0.6142877901360392,0.20658092253543436
1746521910765868800,7.348868896484375,-4.759712063357234,-0.3762036219645291,0.35731808503493667
1746521910775859000,7.35885888671875,-4.628947502371669,-0.09989712903499602,0.2654360662817955
1746521910785848800,7.368848876953125,-4.527326618283987,0.1663249365253374,0.25876119162775574
1746521910795839000,7.3788388671875,-4.57366576013267,0.462724077151902,0.26947825434468686
1746521910805829000,7.3888291015625,-4.623253090122342,0.8538559132549911,0.0818437320806086
1746521910815818000,7.39881787109375,-4.625164476701617,1.1487458914276212,-0.16434293239526448
1746521910825808100,7.40880810546875,-4.319989105227589,1.4746581267863512,-0.36178047127127644
1746521910835798000,7.418798095703125,-3.5880309212177988,1.9094747543044388,-0.494963199314475
1746521910845788000,7.428787841796875,-2.615150349935889,2.3144190983891484,-0.6152556122548878
1746521910855778000,7.438778076171875,-1.5408189904361962,2.5556366692155597,-0.7261687869533896
1746521910865767000,7.448766845703125,-0.2589648244410753,2.6375354924842713,-0.7775565904937685
1746521910875757000,7.458757080078125,1.128680789324641,2.635046306017041,-0.8385030804961919
1746521910885747000,7.468746826171875,2.2606384083628654,2.5193872519657012,-0.8277182132400572
1746521910895736800,7.47873681640625,2.8922780230551957,2.2514193291187286,-0.6680555476155131
1746521910905727000,7.48872705078125,3.1473288889229294,1.958209705248475,-0.51281128295511
1746521910915715800,7.4987158203125,3.12694368802011,1.6463701997101305,-0.5547406820701435
1746521910925706000,7.5087060546875,2.9631974794089793,1.2991644894972443,-0.6379651644520461
1746521910935696000,7.51869580078125,2.777674323275685,0.9679306207243352,-0.5938738745953888
1746521910945685800,7.528685791015625,2.63176596917212,0.8175879374351352,-0.39009493080340324
1746521910955676200,7.53867626953125,2.461145783138275,0.7823911710433662,-0.09734503339938819
1746521910965664800,7.548664794921875,2.2703835573077202,0.7240855509385467,0.11370207476466894
1746521910975655000,7.558655029296875,2.088922828307748,0.590552109761536,0.23064576179906723
1746521910985645000,7.56864501953125,1.9940268685609102,0.459801796497032,0.30290326182357963
1746521910995635000,7.578635009765625,2.0012661721646783,0.3302285641878843,0.4148264903474599
1746521911005625000,7.588625,2.05100255523622,0.18340711382739244,0.5628773363724351
1746521911015614000,7.598614013671875,2.0868080281108616,0.06224938929453492,0.608675685875304
1746521911025604000,7.60860400390625,2.1409680728435516,-0.05547777626775205,0.6077193349985406
1746521911035594000,7.618593994140625,2.1603373747020957,-0.1430101484440267,0.559502416579239
1746521911045584000,7.628583984375,2.1569810500115154,-0.16547500516511499,0.45017731478977946
1746521911055574000,7.638573974609375,2.2923902219325303,-0.23045623057633638,0.3130231988975778
1746521911065563000,7.64856298828125,2.5468010363310576,-0.3039602235306054,0.25684918399397283
1746521911075553000,7.658552978515625,2.772601842316985,-0.39325982457511127,0.24819519128669051
1746521911085543000,7.66854296875,2.9045260947316884,-0.48932979653738434,0.22073150336500255
1746521911095532800,7.67853271484375,2.840728453081846,-0.5497085696544498,0.11384948387872428
1746521911105523000,7.68852294921875,2.5946406458705664,-0.5953355446457862,0.05806004784591496
1746521911115511800,7.69851171875,2.2400106308758256,-0.6704764911521226,0.03995141357295215
1746521911125502000,7.708501953125,1.8401421287506818,-0.7911192519001662,0.017296075781062244
1746521911135491800,7.718491943359375,1.442466168233752,-0.9543797958862036,-0.08952303453683852
1746521911145482000,7.72848193359375,1.0817290685355663,-1.1496657827515155,-0.25613230442889034
1746521911155472100,7.73847216796875,0.7186258242279291,-1.2848004485800861,-0.3899672493031248
1746521911165461000,7.7484609375,0.3480547282576561,-1.3922178901173174,-0.5777873207345604
1746521911175451100,7.758451171875,0.012560206365585327,-1.5825038767382502,-0.6916808264181018
1746521911185441000,7.76844091796875,-0.28534955801963807,-1.6778788521736858,-0.7260907532811165
1746521911195431000,7.778430908203125,-0.6182984870821238,-1.5916896382346748,-0.6745994163010269
1746521911205421000,7.788421142578125,-0.8880962557047605,-1.5090981565266848,-0.6083754242870957
1746521911215410000,7.798409912109375,-1.2422814495414494,-1.4584557645261287,-0.5852115524511784
1746521911225400000,7.808400146484375,-1.7365087357968092,-1.3389458802655338,-0.6735663469262421
1746521911235390000,7.818389892578125,-2.2389210820734498,-1.144962646561861,-0.6626274581521749
1746521911245379800,7.8283798828125,-2.692367445129156,-1.0030193236317484,-0.6277598506495357
1746521911255370000,7.838369873046875,-3.192189190390706,-0.9210577373251319,-0.6413385864078999
1746521911265358800,7.84835888671875,-3.7481221144527193,-0.9010616818703711,-0.6514414627492428
1746521911275349000,7.858348876953125,-4.3795197370827195,-0.9255062411665916,-0.5310578643940389
1746521911285339000,7.8683388671875,-4.961146489849686,-1.0703852522224186,-0.33332875869292766
1746521911295328800,7.878328857421875,-5.214374231943488,-1.2850515007317065,-0.10953626032210886
1746521911305318000,7.88831787109375,-4.895088502052426,-1.4978684681124985,0.07545355611946433
1746521911315307800,7.898307861328125,-4.069524982628226,-1.3119564587920904,0.2100769479576498
1746521911325298200,7.908298095703125,-3.3969209048628803,-0.7993232358176261,0.3884079275645315
1746521911335288000,7.9182880859375,-3.0955098543584345,-0.5171816069938242,0.4343665456630289
1746521911345278000,7.92827783203125,-3.4216356594026087,-0.3692511724781245,0.2526716060483828
1746521911355267000,7.93826708984375,-3.8853018031775948,-0.010916165485605598,0.05964782849401235
1746521911365257000,7.948257080078125,-3.5872044072657823,0.5768079543083906,0.12387114821001886
1746521911375247000,7.9582470703125,-2.808131420859694,1.24506874217242,0.2775262439828366
1746521911385237000,7.968237060546875,-1.9279981068581342,1.7949604863740503,0.2935225257443264
1746521911395227000,7.978226806640625,-0.8768523926347493,2.14098911563158,0.2920294011097401
1746521911405216000,7.988216064453125,0.12347381945550441,2.421373306328803,0.329699243084155
1746521911415206000,7.998205810546875,0.9123679426521062,2.6031173823148013,0.48684948749635365
1746521911425196000,8.008196044921876,1.429760415917635,2.644854291065037,0.6528029603607952
1746521911435186000,8.01818603515625,1.5480542023867367,2.604040634639561,0.8207632795356213
1746521911445175800,8.02817578125,1.4179495666146278,2.504913905455172,0.9179284993886947
1746521911455165000,8.0381650390625,1.3954109870702027,2.427657355034351,0.8774533542025834
1746521911465154800,8.04815478515625,1.4066519275307654,2.3063734468385575,0.9169820123188197
1746521911475145000,8.05814501953125,1.4197440488159656,2.1020763243913647,0.9765852710187435
1746521911485135000,8.068135009765625,1.5965858858436346,1.8900810486569999,0.9377008290901779
1746521911495125000,8.078125,2.0943723258852955,1.6200187838792799,0.8805701710488647
1746521911505114000,8.088114013671875,2.709950448092818,1.350064947912097,0.7374762167789042
1746521911515104000,8.09810400390625,3.1074849543124436,1.1344420562651008,0.42907001015748825
1746521911525094100,8.10809423828125,3.2084844916313884,0.8768868063610047,0.2181482454061508
1746521911535084000,8.118083984375,3.1940655056566,0.574841987997666,0.05991787760704755
1746521911545073200,8.1280732421875,3.2118969304233786,0.322658640390262,-0.02353007479980588
1746521911555063000,8.13806298828125,3.172214908376336,0.18477533344067631,-0.0466391842411831
1746521911565053000,8.148052978515626,2.9920021336108444,0.1006746162135154,0.06826108733210712
1746521911575043000,8.15804296875,2.803313206923008,0.052542891859635704,0.14583156254030763
1746521911585033500,8.168033447265625,2.76462896374166,-0.0453295264147222,0.058556306930258865
1746521911595022300,8.178022216796874,2.726648484915495,-0.20152904597334562,-0.0012006810266524553
1746521911605012500,8.188012451171875,2.6870903815090657,-0.31297340493910014,-0.017192250080406663
1746521911615002400,8.19800244140625,2.766428122118115,-0.4211217910993844,0.03729790338948369
1746521911624992300,8.2079921875,2.9237434208989144,-0.5266441030723974,0.14319558801352977
1746521911634982400,8.217982421875,3.041121846088767,-0.6297582579251378,0.2286477929148823
1746521911644971300,8.22797119140625,3.0153263105750083,-0.7807309827461838,0.29550993670187886
1746521911654961400,8.23796142578125,2.767691273921728,-0.9628023909904062,0.2593331462968141
1746521911664951600,8.24795166015625,2.1829501885265112,-1.1276726351954043,0.20806809235326945
1746521911674941400,8.25794140625,1.3470447233080862,-1.2268930340126156,0.18141111770458518
1746521911684931600,8.267931640625,0.4789268412709236,-1.2908546340525149,0.08592289115302264
1746521911694920400,8.27792041015625,-0.2966454435378313,-1.2481046027369795,0.01788951162956655
1746521911704910600,8.28791064453125,-0.9628899231433868,-1.1618243495136498,-0.06980594215393066
1746521911714900500,8.297900390625,-1.5992355235695839,-1.1684759894225745,-0.1423000274132937
1746521911724890400,8.307890380859375,-2.139980815371871,-1.168466125615686,-0.25067944585047663
1746521911734879500,8.31787939453125,-2.5413351721405983,-1.16120402565822,-0.13953450822271407
1746521911744869400,8.327869384765625,-2.7117794170856473,-1.0714731935895978,0.16337321058027446
1746521911754859500,8.337859619140625,-2.638030874785781,-0.9575729659043252,0.29734730819687244
1746521911764849400,8.347849365234374,-2.515558925849199,-0.9702988842256367,0.22722506663538514
1746521911774839300,8.35783935546875,-2.4096634331822395,-1.0239192691236734,0.11871778403483331
1746521911784828400,8.367828369140625,-2.465439680939913,-0.9869197641588747,0.06640943158343433
1746521911794818300,8.377818359375,-2.7884049761265515,-0.948309389931336,0.08688245690017939
1746521911804808400,8.387808349609376,-3.304039207547903,-0.9826325883589684,0.10257577365972101
1746521911814798300,8.39779833984375,-3.87318875605762,-1.0496664354510605,0.08123451414108276
1746521911824788500,8.40778857421875,-4.235169718337059,-1.1969912322238088,0.06432867978662252
1746521911834777300,8.41777734375,-4.145754820349812,-1.5475246255546808,-0.06874708075076341
1746521911844767500,8.427767578125,-3.623018647968769,-2.029803992123902,-0.23673428793251514
1746521911854757600,8.437757568359375,-2.8561703523635864,-2.268166173519194,-0.29838468842059374
1746521911864747500,8.44774755859375,-2.3990736501067875,-1.8956288920424877,-0.407896837214753
1746521911874736600,8.457736572265626,-2.394665770536661,-1.0614855411257593,-0.510848969906196
1746521911884726500,8.4677265625,-2.7663936353266236,-0.4259590019974857,-0.3592048486296087
1746521911894716400,8.47771630859375,-3.4181858112096783,-0.12687398328781127,-0.1859268415633589
1746521911904706600,8.48770654296875,-3.55074777700603,0.2866433606898412,-0.27860191039033233
1746521911914696400,8.497696533203126,-2.8822487964719534,0.7558839801289141,-0.4065191921859979
1746521911924685600,8.507685546875,-2.1085902363300324,1.440318050289154,-0.6099336865797639
1746521911934675500,8.517675537109374,-1.2705442519515753,2.1722334180705247,-0.9364390655260533
1746521911944665300,8.527665283203126,-0.19919804574251174,2.7290821418032047,-1.2017265171173959
1746521911954655500,8.537655517578125,0.8163087843447924,3.1108944704949852,-1.2003289983443914
1746521911964644400,8.547644287109375,1.339063076904416,3.2829312453284856,-0.9915339068908243
1746521911974634500,8.557634521484376,1.310537824165821,3.2547634277254343,-0.8051860634364187
1746521911984624400,8.567624267578125,1.0539116718053818,2.902256980755925,-0.6977290205411613
1746521911994614300,8.5776142578125,0.7814724487632513,2.410464520432055,-0.6265965059585868
1746521912004604700,8.587604736328124,0.7203513328462838,2.0955682576715944,-0.528860646610707
1746521912014593300,8.59759326171875,0.9686170686185359,1.9577175378173588,-0.3895524944897741
1746521912024583700,8.607583740234375,1.5418290442615747,1.754069819189608,-0.2257591588012874
1746521912034573600,8.617573486328125,2.1324743852645156,1.467676012814045,-0.14748342140056192
1746521912044563500,8.6275634765625,2.4496546673089266,1.101367834985256,-0.0900081877052784
1746521912054552600,8.637552490234375,2.4220038593173028,0.7209868542708456,-0.06417242977898567
1746521912064542500,8.64754248046875,2.361349776390195,0.41733365086279806,0.10681417841445653
1746521912074532600,8.65753271484375,2.483760935050249,0.20839754350334405,0.4127159644668922
1746521912084522500,8.6675224609375,2.67402690179646,0.024150617850944398,0.6223324187733232
1746521912094512400,8.677512451171875,2.8451772491842506,-0.10150536794923246,0.7104518701225518
1746521912104501500,8.68750146484375,3.04258958055377,-0.19737689472995698,0.8097112857758998
1746521912114491400,8.697491455078126,3.191185566306114,-0.2213217608757317,0.8818680288396775
1746521912124481500,8.7074814453125,3.305549612110853,-0.19623203554376958,0.8951048923578113
1746521912134471400,8.717471435546875,3.2903239859282967,-0.22161986703947184,0.9076945440135896
1746521912144461300,8.72746142578125,3.1796757457762954,-0.3180175365861505,0.7756245264526456
1746521912154450400,8.737450439453125,3.022339404207468,-0.3820661573223769,0.4607718836382031
1746521912164440300,8.7474404296875,2.831391884937882,-0.4277815777821466,0.19636179940328
1746521912174430500,8.757430419921874,2.5882114896059036,-0.4875369217712432,0.005611117880046367
1746521912184420400,8.76742041015625,2.2516525533527134,-0.5689718173226341,-0.18741437670737504
1746521912194409500,8.777409423828125,1.8839216492444275,-0.6732853380277752,-0.45430327214598654
1746521912204399400,8.7873994140625,1.5945008962631224,-0.8030729437399655,-0.6403546168718487
1746521912214389500,8.797389404296876,1.3796411710083485,-0.9331640624433756,-0.7771667874585837
1746521912224379600,8.807379638671875,1.0930518420606852,-1.0899911393158137,-0.9076859953809528
1746521912234368500,8.817368408203125,0.5232604885160923,-1.2155739868145434,-1.0186378215894103
1746521912244358700,8.827358642578124,-0.11331892066597937,-1.2324530062273145,-1.1494583505459128
1746521912254348500,8.8373486328125,-0.6013771628975868,-1.2200967980012296,-1.1004273392647503
1746521912264338400,8.84733837890625,-1.0454296746641396,-1.1962858604334294,-0.9622171384483575
1746521912274328600,8.85732861328125,-1.4576964705914257,-1.1620748902086169,-0.8621979174036533
1746521912284317400,8.8673173828125,-1.8508605066418646,-1.122744969534874,-0.7115756865207106
1746521912294307600,8.8773076171875,-2.1257360169202086,-1.1645093508139253,-0.6035494654353708
1746521912304297500,8.88729736328125,-2.3070722427576777,-1.2935707611434162,-0.5911416731525212
1746521912314287400,8.897287353515624,-2.413911153754592,-1.378362237113714,-0.5556470928579569
1746521912324276500,8.9072763671875,-2.5172213061034676,-1.3951377230867743,-0.45498044075518845
1746521912334266400,8.917266357421875,-2.682126037099957,-1.3890515350408852,-0.3605901655081659
1746521912344256500,8.927256591796874,-2.876480734464526,-1.3085161090798676,-0.33334691540412603
1746521912354246400,8.937246337890626,-3.176834384870529,-1.3005137121491133,-0.4318243868995458
1746521912364236300,8.947236328125,-3.81781641292572,-1.3508955535173415,-0.7026879581227898
1746521912374225400,8.957225341796875,-4.208296324458718,-1.4604054372891784,-1.024647656463459
1746521912384215300,8.96721533203125,-4.041027786940336,-1.8262208631649612,-1.1942417873851954
1746521912394205700,8.977205810546875,-3.367221932169795,-2.345543427710235,-1.3448003053821622
1746521912404195600,8.987195556640625,-2.7582594287097453,-2.479858959175646,-1.5521419100917875
1746521912414184400,8.997184326171874,-2.3456208768606186,-1.9052930847056209,-1.24230862980932
1746521912424174600,9.007174560546876,-2.17759947514832,-0.8908944350559264,-0.5071371828414499
1746521912434164500,9.01716455078125,-2.59547300504148,-0.01685885340757668,0.010820815352350473
1746521912444154600,9.027154541015625,-3.395829602494836,0.757240436239168,0.03753251586295664
1746521912454143500,9.0371435546875,-3.990414036512375,1.3736829932563006,-0.179550657594949
1746521912464133400,9.04713330078125,-3.770992117908597,1.76535839818418,-0.25466595820337534
1746521912474123500,9.05712353515625,-2.9398662881821394,2.0526997145429253,-0.16085793982371688
1746521912484113400,9.067113525390624,-1.7924334521144627,2.2601792664185165,-0.13501732305921613
1746521912494103600,9.077103515625,-0.5824608655035496,2.4105507374107837,-0.040104558308050035
1746521912504092400,9.087092529296875,0.5203612599432468,2.514158119140565,0.2558446465939283
1746521912514082300,9.097082275390624,1.3559025680243968,2.611621883548796,0.5678801861610263
1746521912524072400,9.107072509765626,1.6666238831877707,2.612175425778329,0.8924187950789928
1746521912534062300,9.117062255859375,1.5315402899593114,2.453870239177346,1.1273763556625693
1746521912544051500,9.127051513671875,1.3264888420134782,2.3351626112103463,1.2586493776269256
1746521912554041300,9.137041259765626,1.2727718648731707,2.2333485426381228,1.2407631539329886
1746521912564031500,9.147031494140625,1.3582804030716418,2.0784096175998448,1.1589633340593426
1746521912574021600,9.157021728515625,1.4211428096979857,1.9453090148821472,1.089896592900157
1746521912584011000,9.167010986328124,1.4641419934689999,1.8303025795206427,1.0530680605880915
1746521912594000100,9.177000244140626,1.5091349814057349,1.697861171364039,0.9639734805963933
1746521912603990000,9.186989990234375,1.5868021584540604,1.440821615897119,0.7308470078974961
1746521912613980200,9.196980224609375,1.6263433107256888,1.0859135876785964,0.5402447218690067
1746521912623970000,9.206969970703126,1.722804620093107,0.7722007625490427,0.3912448314908892
1746521912633959200,9.216959228515625,1.9186907648086546,0.5248352635521442,0.29153021941594776
1746521912643949000,9.226948974609375,2.218172893077135,0.36848552186787126,0.2439212037619203
1746521912653939000,9.23693896484375,2.5895517982989547,0.23423640670217571,0.3105325876582414
1746521912663929000,9.24692919921875,2.947335893410444,0.06834492969065904,0.4477545080896467
1746521912673918000,9.25691796875,3.25835239212811,-0.046493017236143346,0.6022054304152726
1746521912683908000,9.266908203125,3.4873756672918796,-0.11712781142964958,0.7809572657827287
1746521912693898000,9.27689794921875,3.562586683359742,-0.19485102951414882,0.9570446311812847
1746521912703888000,9.286887939453125,3.532338260090351,-0.2879735133150592,0.9797666775338351
1746521912713877000,9.296876953125,3.422972460964322,-0.4227087314972654,0.8663509454298765
1746521912723867000,9.306866943359376,3.3365760340154167,-0.6022174496466294,0.7521413595344871
1746521912733857000,9.31685693359375,3.2202631922304628,-0.7474671571783721,0.6886298413496464
1746521912743847000,9.326846923828125,2.9204525626599787,-0.9179230194959789,0.7016284391324967
1746521912753837000,9.336837158203124,2.3455863900691267,-1.1217182568356394,0.5091011033255607
1746521912763826000,9.346825927734375,1.681491197451949,-1.2816286866761744,0.13762195259965956
1746521912773816000,9.356816162109375,1.071705102649331,-1.2980322705969214,-0.1271839990850538
1746521912783806200,9.36680615234375,0.5076268660545349,-1.193741875039041,-0.2836148431815207
1746521912793796000,9.376796142578126,-0.16049042168557642,-1.0490133783698081,-0.4024595415316522
1746521912803785000,9.386784912109375,-0.9998293684840202,-0.9751020467236637,-0.46814555421136317
1746521912813775000,9.396775146484375,-1.8248796776890754,-0.9370753176029771,-0.4373226189896464
1746521912823765000,9.406764892578124,-2.4980495726436374,-0.8581995684824884,-0.46555597610957916
1746521912833755100,9.416755126953126,-2.841622187051177,-0.738301342491433,-0.47507608412690455
1746521912843744000,9.426743896484375,-2.7381641506642103,-0.6120351889036596,-0.4572626334082335
1746521912853734100,9.436734130859374,-2.4423925673514604,-0.4953429193470627,-0.40149661478362975
1746521912863724000,9.44672412109375,-2.2865911802649497,-0.36586193189863114,-0.24379092844575642
1746521912873714000,9.4567138671875,-2.302875960111618,-0.33131577490270137,-0.06733319536484778
1746521912883704000,9.4667041015625,-2.6260242106497285,-0.45157804843317717,0.03741707278974354
1746521912893693000,9.47669287109375,-3.249881500902772,-0.7424447259064764,0.0522768613345921
1746521912903683000,9.48668310546875,-3.848616624858975,-1.1933802021197975,0.00215184427164495
1746521912913673000,9.4966728515625,-4.035971672594547,-1.4366659575223921,-0.005660583044961094
1746521912923662800,9.506662841796874,-3.6755724265486,-1.6923489838138221,0.0599289835229516
1746521912933652000,9.51665185546875,-3.074167206600308,-1.8779171481326222,-0.022615224977210163
1746521912943641900,9.526641845703125,-2.607507141706347,-1.5213612796418368,-0.30376331271901724
1746521912953632000,9.536632080078125,-2.3311241494745016,-0.9489845857791602,-0.413258291182667
1746521912963622100,9.5466220703125,-2.29457282666862,-0.6315897842012346,-0.362966977642104
1746521912973611000,9.556611083984375,-2.47931973773241,-0.36470556493774053,-0.4817945787269622
1746521912983601200,9.56660107421875,-2.9048581031650302,0.1450340920196846,-0.6334080856695771
1746521912993591000,9.576591064453124,-3.3090789552807807,0.6600416794426739,-0.6049014645662159
1746521913003581000,9.586580810546875,-3.2811504993915555,1.3130074291497469,-0.620033859507367
1746521913013570000,9.596570068359375,-2.7124539553463456,2.0151761857040227,-0.7450311622031033
1746521913023560000,9.606559814453124,-1.9361258837342261,2.479065178449452,-0.8047183728594333
1746521913033550000,9.616550048828126,-1.1730039151757954,2.7351813354611396,-0.7632222871277481
1746521913043540000,9.6265400390625,-0.6755220110386609,2.81065655542314,-0.6490859856642782
1746521913053529900,9.63652978515625,-0.45477205870151516,2.76035844681561,-0.532218578736484
1746521913063519000,9.64651904296875,-0.34963702901303767,2.5516481841012832,-0.4019086296506226
1746521913073508900,9.6565087890625,-0.10446516760289669,2.2258108406096695,-0.2775453870747238
1746521913083499000,9.6664990234375,0.38748131423890586,1.8888126361563802,-0.18916414298415182
1746521913093489000,9.676489013671874,1.1208189699083566,1.6175965251684188,-0.1809056524004787
1746521913103478000,9.68647802734375,1.910756464678049,1.3432552678972483,-0.20918927840292453
1746521913113468000,9.696468017578125,2.6254987254709006,1.091328671529889,-0.15929894687868654
1746521913123457800,9.706457763671875,3.1542052044332025,0.8444681994456797,-0.09859890591800212
1746521913133448000,9.716447998046876,3.597583762460947,0.6839629455171525,0.0024888211410492656
1746521913143436800,9.726436767578125,3.8474733000427483,0.4716068005811423,0.20289697332568465
1746521913153427000,9.736427001953125,3.8839685087472198,0.2585200032830238,0.4583239790294319
1746521913163417000,9.7464169921875,3.7868455206006764,0.10706102931499481,0.6794201875209808
1746521913173407000,9.756406982421876,3.67057476439178,0.023607158624008296,0.8254787637501955
1746521913183396000,9.76639599609375,3.58431803817451,-0.006346008025854825,0.9289109350435435
1746521913193386000,9.776385986328124,3.4322365483939645,-0.044995033763349054,1.001360450508818
1746521913203376000,9.786376220703126,3.2354812196284533,-0.1187852232478559,0.9310533538997173
1746521913213366000,9.796365966796875,2.9896885959714647,-0.27936007181387396,0.8490496089518069
1746521913223355100,9.806355224609375,2.6995687548100946,-0.4257847048765048,0.8166131010536104
1746521913233345000,9.816344970703126,2.395385901504755,-0.5333642051076516,0.6121370418429374
1746521913243335000,9.8263349609375,2.021785813102126,-0.604752155756019,0.40013701686821873
1746521913253325000,9.836324951171875,1.8089415193229912,-0.7166379383463413,0.32726430755481123
1746521913263314000,9.84631396484375,1.6015800408691168,-0.7692511189632117,-0.004363382841274142
1746521913273304000,9.856303955078126,1.2293237682908773,-0.7897878571659326,-0.2746738502264023
1746521913283294000,9.8662939453125,0.6943330944925546,-0.7749070988982916,-0.495127449965477
1746521913293283800,9.876283935546875,-0.01939502082169056,-0.8113626331795006,-0.7153561549074947
1746521913303274000,9.88627392578125,-0.7954056970477104,-0.8898550820708274,-0.921652196086943
1746521913313262800,9.896262939453125,-1.354540632021427,-0.8934737109594046,-0.9023651656843721
1746521913323253000,9.9062529296875,-1.6403221517175435,-0.8646965292863548,-0.6173609139710664
1746521913333243000,9.916242919921874,-1.6619301724135875,-0.8373701309435069,-0.35929004269503056
1746521913343233000,9.92623291015625,-1.5319927099019288,-0.8539255444251,-0.14024959768950937
1746521913353222000,9.936221923828125,-1.2577975831031798,-0.8034878812164068,0.008915054796263575
1746521913363212000,9.9462119140625,-1.1089993527770041,-0.6998802802909165,0.1309726507782936
1746521913373202200,9.9562021484375,-0.9240554578363895,-0.6312642785739153,0.2418295652449131
1746521913383192000,9.966192138671875,-0.815527863100171,-0.867237665136531,-0.06043488721847534
1746521913393181200,9.97618115234375,-0.49041912614405153,-0.9630557081643492,-0.2038310393054038
1746521913403171000,9.986171142578126,-0.18040800507664678,-0.9140200207080692,-0.1674186865787953
1746521913413161000,9.996160888671875,-0.2637801157683134,-0.8634951176073402,-0.19355697111561893
1746521913423151000,10.006151123046875,-0.7372673963338137,-0.8706906551346182,-0.3693243838448077
1746521913433140000,10.016139892578124,-1.5194219821423292,-0.9608109979774803,-0.6275305719383061
1746521913443130000,10.026130126953126,-2.6415549572587014,-1.277625734645128,-0.8827388203248381
1746521913453120000,10.0361201171875,-3.5441537855684757,-1.4612487562455236,-0.9715563369408249
1746521913463110000,10.04610986328125,-3.899048004457354,-1.627583081653714,-0.9175992674343287
1746521913473099000,10.05609912109375,-3.566275601005554,-1.9579905095398424,-0.7430396230597048
1746521913483089000,10.0660888671875,-2.688148950651288,-2.2555878469750286,-0.5010270293980836
1746521913493079000,10.0760791015625,-1.9726251840919256,-1.7447212683469056,-0.2251980177871883
1746521913503069000,10.08606884765625,-1.6956605925798416,-0.7346233846310526,0.2926700371008366
1746521913513058800,10.096058837890626,-1.8404092552542686,-0.132854665132612,1.0070402497109026
1746521913523048000,10.1060478515625,-2.3076889133512974,0.2305244735069573,1.4986279081776737
1746521913533037800,10.116037841796874,-2.4723978295147417,0.6411532199036329,1.7407056029647587
1746521913543028200,10.1260283203125,-2.268474508816004,1.185153129587695,1.8624372549280523
1746521913553018000,10.13601806640625,-1.8224287774056196,1.985815797315538,1.7381737463995812
1746521913563007200,10.14600732421875,-1.3834616060793399,2.730221667227149,1.61447503214702
1746521913572997000,10.1559970703125,-1.152681842637062,3.100295919591188,1.5094189129136502
1746521913582986800,10.16598681640625,-1.1740928794562815,3.0572376991093155,1.198049070713669
1746521913592977000,10.175976806640625,-1.1899515428453684,2.771321739378571,0.8179086938221007
1746521913602965800,10.1859658203125,-1.1366665273815393,2.4684236651867626,0.5513944038495421
1746521913612956000,10.195955810546875,-0.9843746097207069,2.3042327815480528,0.34478761622048915
1746521913622945800,10.20594580078125,-0.6701169371247291,2.1409373854443428,0.27595775255709887
1746521913632935700,10.215935791015625,-0.11246668775081634,2.001923759290576,0.25143515958860513
1746521913642924800,10.2259248046875,0.6024199499487877,1.9274980483815072,0.2224033455673605
1746521913652914700,10.235914794921875,1.3073217847287655,1.7913138004347682,0.3054299307569861
1746521913662905000,10.245905029296875,1.8789502905726432,1.5337962521925568,0.4648250314865261
1746521913672895000,10.25589501953125,2.287898171210289,1.2169252552930265,0.5046103677775711
1746521913682884900,10.265884765625,2.4562983431071044,0.8647934137895703,0.4731994766000658
1746521913692874000,10.2758740234375,2.4924282256305217,0.5683642433509231,0.4303036801382899
1746521913702864000,10.28586376953125,2.5647359214723107,0.322952874096483,0.4142350272603333
1746521913712854000,10.29585400390625,2.658744576990604,0.12724500855728982,0.41001192967258393
1746521913722844000,10.305843994140625,2.775019424852729,-0.016428499166294932,0.44575946181491016
1746521913732833000,10.3158330078125,2.9536013835459944,-0.13165478782355786,0.5342385402567684
1746521913742823000,10.325822998046876,3.237480869013071,-0.21813962370827794,0.636195889757201
1746521913752812800,10.335812744140625,3.583939267989993,-0.22263255121335385,0.7609386331699788
1746521913762803000,10.345802978515625,3.8264761047214266,-0.18748788033500313,0.8572404411267489
1746521913772792800,10.355792724609374,3.880607507881522,-0.17887137009389698,0.8939036998745054
1746521913782782000,10.365781982421876,3.7707390199303625,-0.1928095137491822,0.7858518328912556
1746521913792771800,10.375771728515625,3.4275890148490666,-0.2082466637905687,0.5704452874086797
1746521913802761700,10.38576171875,3.0231027897953986,-0.39117432353794573,0.4093715859424323
1746521913812752000,10.395751953125,2.631981657749414,-0.5965984041884541,0.3068403090115636
1746521913822740700,10.40574072265625,2.2172990328520537,-0.7904322194840758,0.21652824298888443
1746521913832731000,10.41573095703125,1.8021914605408906,-1.0093463346961886,0.1459939865604043
1746521913842721000,10.425720947265624,1.3460405147016048,-1.2948793595239518,0.09999160238541661
1746521913852711000,10.4357109375,0.88860069809556,-1.4715683440774678,0.11325747280232608
1746521913862700000,10.445699951171875,0.5300093782544135,-1.4505984751544891,0.13715287378318608
1746521913872690000,10.45568994140625,0.12158347566425799,-1.3225626084804534,0.16972732884734867
1746521913882680000,10.46568017578125,-0.34927579448521134,-1.2331415730133652,0.16479009164087474
1746521913892670000,10.475669921875,-0.840766933774948,-1.2415496281355618,0.1716818969812244
1746521913902658800,10.485658935546875,-1.4142682477533817,-1.15707291720286,0.15724413324072956
1746521913912649000,10.49564892578125,-2.1046622492313385,-1.0980538881316781,0.024848902313411234
1746521913922638800,10.505638916015625,-2.661048177757859,-1.0561623733416199,-0.16371427910290656
1746521913932629000,10.51562890625,-3.068747519639134,-1.0032174765523523,-0.2745787192888558
1746521913942619000,10.525618896484374,-3.401163364738226,-0.9921065191470086,-0.24409568354599176
1746521913952607700,10.535607666015625,-3.6668069362908597,-0.9728076521761715,-0.19735380611531436
1746521913962598000,10.545597900390625,-4.036501249426603,-0.9490439147509634,-0.11181143871247767
1746521913972587800,10.555587890625,-4.6157489981025455,-0.99728618680723,0.0660223319619894
1746521913982578000,10.565577880859376,-4.800259177801013,-1.1064227072220294,0.30019414899535474
1746521913992566800,10.57556689453125,-4.358777393305301,-1.408001296313107,0.3331369989804923
1746521914002557000,10.585556884765625,-3.557483807262778,-1.7946749474309385,0.2996488631375134
1746521914012546800,10.595546875,-2.9502544112056492,-1.8237173559114337,-0.0102417733553797
1746521914022537000,10.605536865234376,-2.658058348292112,-1.0887377782538532,-0.4030496163792908
1746521914032525800,10.61552587890625,-2.468833999553323,-0.1329107061687857,-0.4814898236267268
1746521914042516000,10.625515869140624,-2.878549357432127,0.32655703606829045,-0.4531258989296853
1746521914052505900,10.635505859375,-4.107866695982217,0.3138013801958412,-0.5894719133093953
1746521914062496000,10.64549609375,-4.818811318057775,0.5841264606282115,-0.941000893548876
1746521914072484900,10.65548486328125,-4.532387408804893,1.2408712904825805,-1.0201558249369262
1746521914082475000,10.66547509765625,-3.8374452425032852,1.972420163039118,-1.0941887371361254
1746521914092465000,10.67546484375,-2.9114240375518796,2.748556365340948,-1.144256690249592
1746521914102454800,10.685454833984375,-1.9369494750767946,3.370097195345163,-1.13010483077839
1746521914112445000,10.69544482421875,-1.0172539660155773,3.652504270172119,-1.0304696406152098
1746521914122433800,10.705433837890626,-0.16307459295988083,3.6693420077264305,-0.8666255976527929
1746521914132424000,10.715423828125,0.7924480162858962,3.5021278307437895,-0.7148475477982312
1746521914142413800,10.725413818359375,1.5323679729551076,3.1646947420045732,-0.45117176918722685
1746521914152403700,10.73540380859375,1.8939631507873533,2.69209914958179,-0.10731785362027585
1746521914162392800,10.745392822265625,2.317802895608544,2.176851140999049,0.22307255006581544
1746521914172382700,10.7553828125,2.692868964910507,1.9384281693272292,0.4646439758311957
1746521914182372900,10.765372802734374,3.113964963981509,1.522277663834393,0.6226841548204421
1746521914192362800,10.77536279296875,3.516006133970618,1.1150974504563957,0.7416436386566608
1746521914202351900,10.785351806640625,3.47252881129384,0.7690658255241811,0.8498244657818228
1746521914212341800,10.795341796875,3.182010910725593,0.5078515416558832,0.9932297510232776
1746521914222331600,10.80533154296875,2.9428122785061595,0.3737082249522209,1.1086502470783888
1746521914232322000,10.815322021484375,2.753350613880157,0.25504567823596297,1.1411339551191777
1746521914242310700,10.825310546875,2.5647721618294717,0.13422770705148576,1.113794478099048
1746521914252301000,10.835301025390624,2.341313535055518,0.08407616730779409,1.1104571503698826
1746521914262291000,10.845291015625,2.172114906257391,0.06324234585464,1.0346084209203719
1746521914272280800,10.85528076171875,2.087620513537526,-0.046622708030417556,0.8540420834768563
1746521914282271000,10.86527099609375,1.9729472556531429,-0.2208951329614967,0.7045073555696755
1746521914292259800,10.875259765625,1.941510499382019,-0.36932409158386287,0.5228476699315011
1746521914302250000,10.88525,2.109629516249895,-0.5055713217642158,0.36233196767419573
1746521914312239900,10.895239990234375,2.417074001699686,-0.6528162582337856,0.2873574637759477
1746521914322229800,10.905229736328126,2.6898189296901225,-0.7283757954783737,0.23112733477093278
1746521914332219000,10.915218994140625,2.763383347594738,-0.7042189670823514,0.17289616814181208
1746521914342208800,10.925208740234375,2.5989088247090577,-0.6664619948137551,0.1442961696665734
1746521914352199000,10.935198974609374,2.2937118259251115,-0.7082561136439443,0.07501987740993499
1746521914362188800,10.945188720703126,1.942950176796317,-0.7821239714745432,0.010546309259906411
1746521914372178000,10.955177978515625,1.551950040781498,-0.8760863766983151,-0.046329643367975945
1746521914382167800,10.965167724609374,1.1839251221626996,-0.8962078120984136,-0.11997867081612348
1746521914392157700,10.97515771484375,0.5893254905760288,-0.9113044050738215,-0.15180208831727504
1746521914402147800,10.98514794921875,-0.11871230414211749,-0.9117050948292016,-0.23157741662599146
1746521914412136700,10.99513671875,-0.8273813825011253,-1.023495636884123,-0.49126660981886083
1746521914422126800,11.005126953125,-1.3446791632205246,-1.1826928038887679,-0.6224897282268852
1746521914432117000,11.015116943359375,-1.565101783299446,-1.2688783645659685,-0.5783459044653922
1746521914442107000,11.02510693359375,-1.4836568412780762,-1.288466423741728,-0.4905209425507113
1746521914452096000,11.035095947265624,-1.3410223942786454,-1.3257950145304203,-0.39970293629989023
1746521914462086000,11.0450859375,-1.179526594942808,-1.4337038928464054,-0.32069526789542285
1746521914472076000,11.055075927734375,-1.0215174686789512,-1.5294520855084062,-0.20337036299109457
1746521914482066000,11.06506591796875,-0.8776192853540181,-1.5954706180781124,-0.2380132948923856
1746521914492055800,11.075055908203124,-0.8175590766668319,-1.589617508135736,-0.2303260283254087
1746521914502045000,11.085044921875,-0.9875959098547696,-1.395254773595184,-0.15907080067861823
1746521914512034800,11.095034912109375,-1.4122569079309701,-1.1981070114459842,-0.1837692982032895
1746521914522025000,11.10502490234375,-2.094744666329026,-0.9919464332144707,-0.26798772352598604
1746521914532014800,11.115014892578126,-3.047694210216403,-0.8713815600082278,-0.3494738743405789
1746521914542004000,11.12500390625,-3.8127509462296962,-0.995191479550302,-0.41717561075687404
1746521914551993900,11.134993896484374,-4.086241139629483,-1.3751295388028024,-0.4684153110634535
1746521914561983700,11.144983642578126,-4.229973903259634,-1.4381493279479443,-0.5585398186247795
1746521914571974000,11.154973876953125,-3.93941508615911,-0.8804274746425449,-0.3503026533149183
1746521914581962800,11.164962646484375,-3.4273820941001176,-0.4057283706018701,-0.018886048386245965
1746521914591953000,11.174952880859376,-3.1906384538173675,-0.11066058817692101,-0.044153724100999533
1746521914601942800,11.18494287109375,-3.66378554264307,0.27215638751275834,-0.238361743003875
1746521914611932700,11.1949326171875,-4.553948083227873,0.7339728848330677,-0.37978378200624135
1746521914621921800,11.204921875,-5.117771468278765,1.2405074256062507,-0.35469336255453526
1746521914631911700,11.21491162109375,-4.921828624939918,1.7125892232879996,-0.18393409684356302
1746521914641901800,11.22490185546875,-3.8324160161644216,2.060684721947461,-0.15020269029662012
1746521914651892000,11.23489208984375,-2.422689503493905,2.367159047190845,-0.05338708759881556
1746521914661880800,11.244880859375,-1.0537047510564326,2.557204941445589,0.26396767422966655
1746521914671871000,11.25487109375,0.1775976238310337,2.6055302886754275,0.5420105259651318
1746521914681860900,11.26486083984375,1.1793009694933891,2.445692777940631,0.8083499342948198
1746521914691851000,11.27485107421875,1.8618331515550612,2.2353293411917985,1.0820054012589155
1746521914701840000,11.28483984375,2.063870220115781,2.042506237308681,1.3195828620173036
1746521914711830000,11.294830078125,1.9685610033929346,1.8108664960362015,1.4505373926170169
1746521914721820000,11.30481982421875,1.9068319847106932,1.5876576062396168,1.4016802765980363
1746521914731809800,11.314809814453126,1.8409142821669577,1.4114856312975286,1.2682828828908503
1746521914741799000,11.324798828125,1.8648112905830143,1.23447545196563,1.1156262235708534
1746521914751788800,11.334788818359375,1.9444512290090321,1.0062583786182104,0.896322670649737
1746521914761779000,11.344779052734374,2.0068553704738616,0.8072939955011009,0.6619825843773782
1746521914771768800,11.354768798828125,2.1399270393580196,0.6385758436962962,0.46479638991393146
1746521914781758000,11.364758056640625,2.391314122021198,0.4658781207360327,0.20721816099304705
1746521914791747800,11.374747802734374,2.61632406989038,0.23621453837472944,-0.015442228075303136
1746521914801737700,11.38473779296875,2.7844430867582557,0.056142450721561904,-0.049863589647784826
1746521914811728000,11.394727783203125,2.979281768247485,-0.0330003523260355,0.016788418519869445
1746521914821716700,11.404716796875,3.110433282724023,-0.08153824632801115,0.1662326551320031
1746521914831707000,11.414706787109376,3.235506938591599,-0.08776811716090888,0.25582648988272993
1746521914841696800,11.42469677734375,3.3588317049652336,-0.11410652737971394,0.33558563424162563
1746521914851686700,11.434686767578125,3.3673265615880488,-0.15846457841377704,0.3941595498938113
1746521914861675800,11.44467578125,3.3291263025313613,-0.22258188047204167,0.31968777135331183
1746521914871665700,11.454665771484375,3.18184958268404,-0.32295988835915923,0.20776764810197054
1746521914881655800,11.46465576171875,2.8741636896938085,-0.5403111016361043,0.18569106004610655
1746521914891646000,11.47464599609375,2.618604289782047,-0.7770788899794221,0.2143630277790129
1746521914901634800,11.484634765625,2.473031451243162,-0.916413710911572,0.29205402409434317
1746521914911625000,11.494625,2.246115962013602,-0.999892058456689,0.2811091439709067
1746521914921614800,11.50461474609375,1.8930103801071643,-1.068173859783262,0.31685324204713106
1746521914931604700,11.514604736328126,1.3514911813229322,-1.0477242884073406,0.39877661523520946
1746521914941593900,11.52459375,0.7348562435388565,-1.0677481086518614,0.42050314774438735
1746521914951583700,11.534583740234375,0.1429068342000246,-1.1523667122732848,0.4792758739043027
1746521914961574000,11.544573974609374,-0.3989531408458948,-1.1870091327179222,0.5478318890623748
1746521914971563800,11.554563720703126,-0.8379384323507547,-1.1077708338953554,0.5972858749959618
1746521914981553000,11.564552978515625,-1.1428507689744234,-0.9911343131139874,0.5867288251463324
1746521914991542800,11.574542724609374,-1.3519833487540482,-0.9679643768634647,0.6301216113448143
1746521915001532700,11.58453271484375,-1.4364783259958027,-0.8681728270947933,0.6707841688618064
1746521915011522800,11.594522705078125,-1.56278181591928,-0.8214668977603315,0.731077382587269
1746521915021511700,11.60451171875,-1.7334557779669761,-0.7936408793322741,0.6512680058784782
1746521915031501800,11.614501708984376,-1.9357693253815174,-0.6853917362112552,0.5063212633486837
1746521915041491700,11.62449169921875,-2.340721998903155,-0.6159370186477899,0.43595038078837095
1746521915051481600,11.634481689453125,-2.9842285769999024,-0.6616895927801728,0.29122940983846785
1746521915061470700,11.644470703125,-4.001031292116641,-0.8218773051921278,0.08658106280080974
1746521915071460600,11.654460693359376,-4.819664720016718,-0.9980465036552398,0.0037934009335935112
1746521915081451000,11.664450927734375,-5.075768309807777,-1.1985552666701376,0.0292968216329813
1746521915091441000,11.67444091796875,-4.841898763656616,-1.5235320478096603,0.08824000898897648
1746521915101430000,11.684429931640626,-3.9230338602006434,-1.9845710579514502,0.2006896725397557
1746521915111420000,11.694419921875,-2.8759429743260143,-2.1306416168794033,0.19523542572185396
1746521915121409800,11.704409912109375,-2.37098211261034,-1.8101636084638535,-0.13698540826179087
1746521915131400000,11.71439990234375,-2.2688065172493457,-1.3071841298237443,-0.36580205493755635
1746521915141388800,11.724388916015625,-2.280644839081168,-0.9941119406852871,-0.22924707398228347
1746521915151379000,11.73437890625,-2.2551012325018642,-0.633893238838017,-0.3115183838251978
1746521915161368800,11.744368896484374,-2.077894069293141,0.021968524571508167,-0.9809146785251796
1746521915171358700,11.754358642578126,-2.036128811231255,0.7106456391289829,-1.2295064313814044
1746521915181347800,11.764347900390625,-1.9295400756031273,1.7826191834561527,-1.2708426503762602
1746521915191337700,11.774337646484375,-1.7216911058932542,2.8177526511639357,-1.165233938761428
1746521915201327900,11.784327880859376,-1.473796541520953,3.377297628243267,-0.9156198571201414
1746521915211317800,11.79431787109375,-1.314851595711708,3.4318656692549583,-0.7737439734030515
1746521915221307000,11.804306884765625,-1.3314526019006967,3.1982176568999883,-0.6742563019517809
1746521915231296800,11.814296875,-1.2340291695028542,2.909007624059915,-0.504336884598434
1746521915241286700,11.82428662109375,-0.8404179742068052,2.583864692573249,-0.29865510285980995
1746521915251276800,11.83427685546875,-0.22727029401659965,2.2850820908762515,-0.05957469019256532
1746521915261265700,11.844265625,0.5646463918715715,2.041244692940265,0.1388476219370961
1746521915271255800,11.854255859375,1.4243857371419668,1.8449591736435889,0.21285941828303037
1746521915281246000,11.864245849609375,2.0530466282844544,1.5901254576578736,0.27593751348666845
1746521915291235800,11.87423583984375,2.4136171392440793,1.3116307339690625,0.3418239441093057
1746521915301225000,11.884224853515626,2.590359023028612,1.0514537572592497,0.4627523899309337
1746521915311214800,11.89421484375,2.6612241188466546,0.866532074150443,0.6540452885720879
1746521915321205000,11.904205078125,2.7951410063832998,0.733713430179283,0.8171119174212217
1746521915331195000,11.91419482421875,3.025881022337079,0.5950360502425581,0.9293255071938037
1746521915341184000,11.92418408203125,3.2716964423477646,0.49479580685831603,1.1081115370918064
1746521915351174000,11.934173828125,3.5046365986943244,0.4537695305954665,1.1917371841531246
1746521915361163800,11.944163818359375,3.7347096751719713,0.4222655543070286,1.0895980483449994
1746521915371154000,11.95415380859375,3.9144413884222504,0.4197574439436197,1.0541001801148056
1746521915381142800,11.964142822265625,3.9803959158450364,0.44028044588193294,1.0382767341695724
1746521915391133000,11.9741328125,3.9200551366508005,0.4298655809819698,0.8963718435537069
1746521915401122800,11.984122802734374,3.7638790710330006,0.31268399353846904,0.7734229978203773
1746521915411112000,11.99411181640625,3.5391070235729214,0.10585844859220087,0.634011093064025
1746521915421101800,12.004101806640625,3.28623408626616,-0.07400624338798224,0.507128195817396
1746521915431091700,12.014091796875,2.9426527040302752,-0.2163354968957603,0.31793950291387735
1746521915441081900,12.024081787109376,2.4215046776235103,-0.32019962986558675,0.12610847880803047
1746521915451070700,12.03407080078125,1.9119401215046643,-0.43548480910323556,0.01894523122757673
1746521915461060900,12.044060791015625,1.62326404941082,-0.5728331689259037,-0.13942702926024794
1746521915471050800,12.05405078125,1.4332891745656728,-0.7851520871240645,-0.19970204974189398
1746521915481040600,12.06404052734375,1.113895308125019,-1.0406121183145791,-0.2869283516436815
1746521915491029800,12.07402978515625,0.7306447633236646,-1.3758509849451481,-0.3092108375351876
1746521915501019600,12.08401953125,0.19481530061364172,-1.7290332853496073,-0.4770453383732587
1746521915511010000,12.094010009765626,-0.38308220249712466,-1.9864723615281283,-0.6836426275216042
1746521915521000000,12.104,-0.8330138354301452,-2.0957238866247234,-0.7486334975440054
1746521915530989000,12.113989013671874,-1.302516430273652,-2.0513193661004303,-0.6085922088429332
1746521915540979000,12.12397900390625,-1.8966127885133026,-1.9131568038180469,-0.627281711743772
1746521915550968800,12.13396875,-2.5677801114737986,-1.8443781588852404,-0.7124555380951613
1746521915560959000,12.143958984375,-2.9525591810166834,-1.7625807501643895,-0.5944590540722012
1746521915570947800,12.15394775390625,-3.0222511414021254,-1.6396644184611737,-0.5363631311953068
1746521915580938000,12.16393798828125,-2.9887796644330025,-1.5714163732737303,-0.5691719064719974
1746521915590928100,12.17392822265625,-2.923238393986225,-1.550798094267398,-0.43704489802680907
1746521915600918000,12.18391796875,-2.876055202528834,-1.398055802490562,-0.26483013627789914
1746521915610907100,12.1939072265625,-2.8767969608068467,-1.1207463430635631,-0.2140146527327597
1746521915620897000,12.20389697265625,-3.223578600388765,-0.8758788714274763,-0.252501838972047
1746521915630887000,12.213886962890625,-3.9840415788710115,-0.7169897474586964,-0.41057453199140725
1746521915640877000,12.223876953125,-4.486434051403403,-0.6521659045662731,-0.3576135608501732
1746521915650866000,12.233865966796875,-4.301111386278271,-0.8352584725517779,-0.09526092060171067
1746521915660856000,12.24385595703125,-3.6283962493538855,-1.189779547279328,-0.06470080103464425
1746521915670846000,12.253845947265624,-2.9434231038808822,-1.1500533207643777,-0.07591668011918663
1746521915680835000,12.2638349609375,-2.580567696854472,-0.6611668840803205,0.11444061817228793
1746521915690825000,12.273824951171875,-2.424071897763014,-0.12272329334914683,0.28644115264862774
1746521915700814800,12.28381494140625,-2.378462823754549,0.39567879535034295,0.560296379968524
1746521915710805000,12.293804931640626,-2.4985551840782163,0.7873794077847153,0.723743240306899
1746521915720793900,12.3037939453125,-2.494465868937969,1.1520355806227773,0.5069876913681626
1746521915730784000,12.313783935546875,-2.286107780662179,1.6272854138813913,0.1574683704506606
1746521915740774000,12.32377392578125,-1.881205376023054,2.0962650077641007,-0.049698169953003524
1746521915750763800,12.333763671875,-1.2203899357289074,2.4948101523309947,-0.11075951850675046
1746521915760753000,12.3437529296875,-0.6456622948259115,2.724742066772282,0.05950615500099957
1746521915770742800,12.35374267578125,-0.0048334115058183665,2.8819223409965633,0.3592595014262944
1746521915780733000,12.36373291015625,0.548030188113451,2.8636890574306246,0.6903048618897796
1746521915790722800,12.373722900390625,1.0185141952097416,2.654269477403164,0.8344866113964468
1746521915800712000,12.3837119140625,1.3827666095525026,2.3777415237426758,0.9200121007297187
1746521915810701800,12.393701904296876,1.8258564137667417,2.062439018268883,0.9457381512038409
1746521915820692000,12.40369189453125,2.199559962543845,1.792838671914488,0.9842352743152528
1746521915830680800,12.413680908203125,2.3346026392400265,1.4686688232436775,1.154897472859919
1746521915840671000,12.4236708984375,2.208916988953948,1.1160120080180465,1.3122748770914971
1746521915850661000,12.4336611328125,2.0839608219861985,0.8489739864323288,1.2211409732919185
1746521915860651000,12.443651123046875,2.0145511856734752,0.5497788584116846,0.9644387600205838
1746521915870640000,12.45364013671875,1.9225006784856318,0.20624153451323507,0.6286810571476816
1746521915880630000,12.463630126953126,1.8328706764429807,-0.10956424430757761,0.24561639030724763
1746521915890620000,12.473619873046875,1.76979725741446,-0.3457594569273293,-0.08401384266130625
1746521915900610000,12.483610107421875,1.7249480618625879,-0.5133374257210642,-0.25371764450259504
1746521915910599000,12.493598876953126,1.7952198679625988,-0.5757317764442413,-0.3330233094729483
1746521915920589000,12.503589111328125,2.0292507421553134,-0.5959285421028733,-0.3568392885420471
1746521915930579000,12.513578857421875,2.4016963998258114,-0.5239457673665135,-0.264863015634194
1746521915940568800,12.52356884765625,2.6989047379434106,-0.40466874201372266,-0.04307363724671304
1746521915950558000,12.533557861328125,2.9246009145110845,-0.3200317990180105,0.12410678359679878
