time,seconds_elapsed,z,y,x
1746521903453307000,0.036306884765625,0.10265731811523438,-0.07437575608491898,0.11080390214920044
1746521903463296000,0.0462958984375,0.10885422676801682,-0.03851256147027016,0.052294254302978516
1746521903473286000,0.056285888671875,0.11582569032907486,-0.023952150717377663,-0.008994907140731812
1746521903483275800,0.06627587890625,0.10091997683048248,-0.010533016175031662,-0.031174777075648308
1746521903493266000,0.076265869140625,0.06167137250304222,0.025863608345389366,0.0022710629273205996
1746521903503255800,0.086255859375,0.01690656878054142,0.0811750665307045,0.10118512064218521
1746521903513246000,0.096245849609375,-0.025397321209311485,0.12148376554250717,0.23864495754241943
1746521903523236000,0.106236083984375,-0.05009867250919342,0.17323963344097137,0.4013476073741913
1746521903533226000,0.11622607421875,-0.04278387874364853,0.2641763389110565,0.5490105152130127
1746521903543215900,0.1262158203125,-0.0019435025751590729,0.349284827709198,0.6731329560279846
1746521903553205000,0.136205078125,0.04565269500017166,0.3637799322605133,0.7522217631340027
1746521903563195000,0.14619482421875,0.07062195986509323,0.3183911442756653,0.7568423748016357
1746521903573185300,0.156185302734375,0.08010198920965195,0.2654348313808441,0.6551361083984375
1746521903583175200,0.166175048828125,0.07892540097236633,0.18785937130451202,0.4716328978538513
1746521903593165000,0.1761650390625,0.05314192548394203,0.06513426452875137,0.2313055843114853
1746521903603155200,0.1861552734375,-0.010579792782664299,-0.13578365743160248,-0.03881644457578659
1746521903613145000,0.19614501953125,-0.1027943342924118,-0.2797558605670929,-0.34023621678352356
1746521903623135000,0.206135009765625,-0.21525190770626068,-0.2710185647010803,-0.6097329258918762
1746521903633125000,0.216125,-0.2905067205429077,-0.13646644353866577,-0.7513532638549805
1746521903643114000,0.226114013671875,-0.2990671992301941,0.05800502374768257,-0.7350597977638245
1746521903653104000,0.236104248046875,-0.2509401738643646,0.2321326732635498,-0.5636903643608093
1746521903663094000,0.246093994140625,-0.16165637969970703,0.3305386006832123,-0.28490933775901794
1746521903673084000,0.256083984375,-0.05514522269368172,0.3857058584690094,0.036246299743652344
1746521903683074300,0.26607421875,0.06049056351184845,0.3661707937717438,0.336373895406723
1746521903693064200,0.276064208984375,0.1801285594701767,0.30092599987983704,0.5755007266998291
1746521903703054000,0.28605419921875,0.2946055829524994,0.23498401045799255,0.717549741268158
1746521903713044200,0.296044189453125,0.37186798453330994,0.1777050942182541,0.750306248664856
1746521903723033000,0.306033203125,0.39988258481025696,0.10013679414987564,0.6919718384742737
1746521903733023200,0.316023193359375,0.3940551280975342,0.02460813894867897,0.5749947428703308
1746521903743013000,0.32601318359375,0.3718227744102478,-0.04773849621415138,0.4165270924568176
1746521903753003000,0.3360029296875,0.34793007373809814,-0.14344868063926697,0.23640893399715424
1746521903762993200,0.3459931640625,0.3235539197921753,-0.23995071649551392,0.04789974167943001
1746521903772983000,0.355983154296875,0.3003329634666443,-0.3240988254547119,-0.1306852102279663
1746521903782973000,0.365972900390625,0.2673201560974121,-0.38856250047683716,-0.26893338561058044
1746521903792963000,0.375963134765625,0.23582656681537628,-0.40175384283065796,-0.33470267057418823
1746521903802952000,0.385951904296875,0.19723841547966003,-0.35805565118789673,-0.33313512802124023
1746521903812942000,0.395942138671875,0.14924325048923492,-0.27048105001449585,-0.2858419716358185
1746521903822932200,0.40593212890625,0.10363661497831345,-0.17620059847831726,-0.22817201912403107
1746521903832922000,0.415922119140625,0.0729864239692688,-0.07882669568061829,-0.1770678013563156
1746521903842912300,0.425912353515625,0.06470505893230438,-0.0009305631392635405,-0.13449931144714355
1746521903852902100,0.435902099609375,0.06763502955436707,0.02113352157175541,-0.11829952150583267
1746521903862892000,0.44589208984375,0.08187202364206314,-0.004640285857021809,-0.12613481283187866
1746521903872882200,0.455882080078125,0.10921496152877808,-0.07919229567050934,-0.1334894597530365
1746521903882872000,0.4658720703125,0.13522100448608398,-0.2003416270017624,-0.14548327028751373
1746521903892861200,0.475861083984375,0.1520274430513382,-0.30588459968566895,-0.14954537153244019
1746521903902851000,0.48585107421875,0.17986465990543365,-0.34042394161224365,-0.1586318016052246
1746521903912841000,0.495841064453125,0.21665289998054504,-0.3043626546859741,-0.1794271022081375
1746521903922831000,0.5058310546875,0.25386524200439453,-0.22888149321079254,-0.2159198671579361
1746521903932821000,0.515821044921875,0.2767724096775055,-0.13745570182800293,-0.2704477310180664
1746521903942811100,0.52581103515625,0.27632901072502136,-0.06984362006187439,-0.3411328196525574
1746521903952801300,0.53580126953125,0.26140230894088745,-0.014634120278060436,-0.41379404067993164
1746521903962791200,0.545791259765625,0.2511078715324402,0.03458002954721451,-0.48627305030822754
1746521903972780300,0.5557802734375,0.2510773837566376,0.08852224797010422,-0.5492222309112549
1746521903982770200,0.565770263671875,0.2655594050884247,0.14695386588573456,-0.5760918855667114
1746521903992760000,0.575760009765625,0.29763510823249817,0.1567719429731369,-0.5793131589889526
1746521904002750200,0.585750244140625,0.33507460355758667,0.14019961655139923,-0.551870584487915
1746521904012740000,0.595739990234375,0.3453695476055145,0.1452973634004593,-0.510732114315033
1746521904022730200,0.605730224609375,0.31657543778419495,0.14900927245616913,-0.46373239159584045
1746521904032720100,0.61572021484375,0.23376069962978363,0.14864060282707214,-0.40380674600601196
1746521904042710000,0.6257099609375,0.014595330692827702,0.1331135779619217,-0.2914658188819885
1746521904052700200,0.6357001953125,-0.23681572079658508,0.03420691937208176,-0.2087295800447464
1746521904062689000,0.64568896484375,-0.31501731276512146,-0.12017013132572174,-0.20049960911273956
1746521904072679200,0.65567919921875,-0.30045488476753235,-0.3724348843097687,-0.25159183144569397
1746521904082669000,0.6656689453125,-0.32773470878601074,-0.3972014784812927,-0.2628924250602722
1746521904092659200,0.6756591796875,-0.36452388763427734,-0.3259424865245819,-0.21861550211906433
1746521904102649000,0.685649169921875,-0.35787904262542725,-0.23704323172569275,-0.16166938841342926
1746521904112639200,0.69563916015625,-0.3006000816822052,-0.18040211498737335,-0.09166821092367172
1746521904122629000,0.705629150390625,-0.21507160365581512,-0.1599881798028946,-0.012937711551785469
1746521904132619300,0.715619384765625,-0.11812874674797058,-0.16349859535694122,0.07448001205921173
1746521904142608100,0.725608154296875,-0.03312117978930473,-0.2219991832971573,0.14854039251804352
1746521904152598000,0.735597900390625,-0.08475063741207123,-0.33114591240882874,0.17234215140342712
1746521904162588200,0.745588134765625,-0.352946937084198,-0.4039340913295746,0.17956411838531494
1746521904172578000,0.755578125,-0.483908474445343,-0.5789196491241455,0.09467592090368271
1746521904182568200,0.765568115234375,-0.5869581699371338,-0.5386630296707153,0.01856916956603527
1746521904192558000,0.77555810546875,-0.5606879591941833,-0.5662682056427002,0.029738716781139374
1746521904202548000,0.7855478515625,-0.465154230594635,-0.5548128485679626,0.1184142604470253
1746521904212538400,0.795538330078125,-0.349997341632843,-0.42888468503952026,0.1835079789161682
1746521904222528300,0.8055283203125,-0.25150272250175476,-0.27826616168022156,0.18826517462730408
1746521904232517000,0.81551708984375,-0.10258118808269501,-0.11362812668085098,0.16424190998077393
1746521904242507300,0.82550732421875,0.06299392133951187,-0.0089381979778409,0.17852124571800232
1746521904252497200,0.8354970703125,0.1596660315990448,0.17188048362731934,0.2243686020374298
1746521904262487300,0.8454873046875,0.20125874876976013,0.42374226450920105,0.23758932948112488
1746521904272477200,0.855477294921875,0.2709861099720001,0.564980685710907,0.21511515974998474
1746521904282467000,0.865467041015625,0.3138243854045868,0.5906146764755249,0.18999488651752472
1746521904292457200,0.875457275390625,0.3218367397785187,0.5829464793205261,0.1504189819097519
1746521904302447000,0.885447021484375,0.3224439322948456,0.5487759709358215,0.06544443219900131
1746521904312436200,0.895436279296875,0.2943478524684906,0.5464164018630981,-0.04510790854692459
1746521904322426000,0.905426025390625,0.24609880149364471,0.5135130882263184,-0.16937047243118286
1746521904332416000,0.915416015625,0.20517370104789734,0.4413549304008484,-0.2699085474014282
1746521904342406100,0.92540625,0.1473008096218109,0.3963565528392792,-0.3347786068916321
1746521904352396000,0.93539599609375,0.0848148763179779,0.3632611036300659,-0.37560635805130005
1746521904362386200,0.94538623046875,-0.009420013055205345,0.370128870010376,-0.38459932804107666
1746521904372376300,0.955376220703125,-0.11178181320428848,0.37181356549263,-0.37069395184516907
1746521904382366200,0.9653662109375,-0.1493622064590454,0.3785340487957001,-0.360391765832901
1746521904392355300,0.975355224609375,-0.12730295956134796,0.4015204608440399,-0.3482021689414978
1746521904402345200,0.98534521484375,-0.0703485980629921,0.4359322190284729,-0.3350466787815094
1746521904412335000,0.995335205078125,-0.01199197955429554,0.45244574546813965,-0.31530317664146423
1746521904422325200,1.0053251953125,0.03372836858034134,0.43411654233932495,-0.28169649839401245
1746521904432315100,1.015315185546875,0.07159518450498581,0.4011212885379791,-0.22571736574172974
1746521904442305000,1.025304931640625,0.10416751354932785,0.36609750986099243,-0.15538114309310913
1746521904452295200,1.035295166015625,0.11756594479084015,0.30325159430503845,-0.08047275990247726
1746521904462285000,1.04528515625,0.1221814751625061,0.20355749130249023,-0.020117806270718575
1746521904472274200,1.055274169921875,0.12710967659950256,0.11996179074048996,-0.006245885509997606
1746521904482264000,1.06526416015625,0.11022603511810303,0.03983979672193527,-0.05772026255726814
1746521904492254000,1.07525390625,0.07555601745843887,-0.037402551621198654,-0.14716021716594696
1746521904502244400,1.085244384765625,0.05483236536383629,-0.0314762182533741,-0.258803129196167
1746521904512234200,1.095234130859375,0.05930999293923378,0.045273225754499435,-0.36284342408180237
1746521904522224000,1.10522412109375,0.03704144060611725,0.15326626598834991,-0.4344662129878998
1746521904532214300,1.11521435546875,0.03819103538990021,0.19219128787517548,-0.4946843385696411
1746521904542204200,1.1252041015625,0.0916939377784729,0.1506238728761673,-0.5036666393280029
1746521904552193300,1.135193359375,0.14073260128498077,0.06286926567554474,-0.45603111386299133
1746521904562183200,1.14518310546875,0.15211495757102966,-0.023491453379392624,-0.37187257409095764
1746521904572173000,1.155173095703125,0.15614278614521027,-0.05180858075618744,-0.24914029240608215
1746521904582163000,1.165162841796875,0.17921775579452515,-0.03955351188778877,-0.07283131033182144
1746521904592152800,1.17515283203125,0.2151312679052353,-0.0059841168113052845,0.10622013360261917
1746521904602142700,1.185142822265625,0.26368603110313416,0.005449899006634951,0.23798854649066925
1746521904612132900,1.1951328125,0.3098621666431427,0.01455316785722971,0.30558353662490845
1746521904622121700,1.205121826171875,0.3363126814365387,0.015649590641260147,0.29780977964401245
1746521904632111900,1.21511181640625,0.35302209854125977,0.030633071437478065,0.21647687256336212
1746521904642101800,1.225101806640625,0.34300434589385986,0.026711834594607353,0.09369529783725739
1746521904652091600,1.235091552734375,0.3043665587902069,0.004470701329410076,-0.03271222114562988
1746521904662081800,1.245081787109375,0.2457062005996704,-0.007785964757204056,-0.12293586134910583
1746521904672071700,1.25507177734375,0.13067400455474854,0.01155760232359171,-0.15350274741649628
1746521904682061600,1.2650615234375,0.048427607864141464,-0.047038864344358444,-0.13871581852436066
1746521904692051700,1.2750517578125,0.02347804792225361,-0.08339207619428635,-0.0034325523301959038
1746521904702040600,1.28504052734375,0.056790463626384735,-0.05888434126973152,0.2493261992931366
1746521904712030700,1.29503076171875,0.18105658888816833,-0.049612268805503845,0.5669702291488647
1746521904722020900,1.305020751953125,0.35163256525993347,0.00807286612689495,0.8666408658027649
1746521904732010800,1.3150107421875,0.45908746123313904,0.11413826793432236,1.0272146463394165
1746521904742001000,1.3250009765625,0.4952326714992523,0.1743326336145401,0.9465839266777039
1746521904751990800,1.33499072265625,0.49296674132347107,0.10725193470716476,0.6131088137626648
1746521904761980700,1.344980712890625,0.4649505317211151,-0.008858960121870041,0.20372581481933594
1746521904771970800,1.354970703125,0.42380839586257935,-0.08770984411239624,-0.0713481605052948
1746521904781959700,1.364959716796875,0.2699306905269623,-0.1596175879240036,-0.18036358058452606
1746521904791949800,1.37494970703125,0.12056262791156769,-0.2745368778705597,-0.2051134556531906
1746521904801939700,1.384939697265625,0.0709865540266037,-0.3300970792770386,-0.15406198799610138
1746521904811929600,1.3949296875,0.08387918025255203,-0.32603976130485535,-0.07589580863714218
1746521904821919700,1.404919677734375,0.11770185828208923,-0.3132435381412506,-0.01173439808189869
1746521904831909600,1.41490966796875,0.1902407854795456,-0.2595546543598175,0.038374558091163635
1746521904841899500,1.4248994140625,0.2050546109676361,-0.20192012190818787,0.04528546333312988
1746521904851888600,1.434888671875,0.19334633648395538,-0.11813950538635254,0.006437693722546101
1746521904861878500,1.44487841796875,0.14931683242321014,-0.0712718591094017,-0.07672430574893951
1746521904871869000,1.454868896484375,0.09554719924926758,-0.047507744282484055,-0.18329155445098877
1746521904881858800,1.46485888671875,0.09611444920301437,-0.05541626736521721,-0.28626158833503723
1746521904891848700,1.4748486328125,0.16440366208553314,-0.06514345854520798,-0.36420273780822754
1746521904901838800,1.4848388671875,0.2503974139690399,-0.0498633086681366,-0.3991154432296753
1746521904911828700,1.494828857421875,0.2907273471355438,-0.027715815231204033,-0.3840424418449402
1746521904921818600,1.504818603515625,0.2585659623146057,-0.002744950819760561,-0.3276481628417969
1746521904931807700,1.514807861328125,0.17498381435871124,0.02924601547420025,-0.24663154780864716
1746521904941797600,1.524797607421875,0.07663993537425995,0.06305564194917679,-0.15434743463993073
1746521904951787800,1.534787841796875,-0.03151508420705795,0.06008483096957207,-0.0608968548476696
1746521904961777700,1.544777587890625,-0.15590281784534454,0.025630982592701912,0.025427386164665222
1746521904971767600,1.554767578125,-0.269265741109848,-0.028286805376410484,0.10262276232242584
1746521904981757700,1.5647578125,-0.36892732977867126,-0.04653318598866463,0.16349409520626068
1746521904991747800,1.574747802734375,-0.3903592526912689,-0.05626121908426285,0.20893222093582153
1746521905001736700,1.58473681640625,-0.3011159300804138,-0.07396911084651947,0.2166506052017212
1746521905011726800,1.594726806640625,-0.20400585234165192,-0.11174838989973068,0.1415119171142578
1746521905021716700,1.604716796875,-0.08440008014440536,-0.24162356555461884,0.05024592950940132
1746521905031707000,1.614706787109375,-0.033020392060279846,-0.25722387433052063,-0.018810097128152847
1746521905041696800,1.62469677734375,-0.045948706567287445,-0.294588565826416,-0.06440234929323196
1746521905051686700,1.634686767578125,-0.0792471170425415,-0.3600638210773468,-0.0979643315076828
1746521905061676800,1.6446767578125,-0.13414978981018066,-0.35126444697380066,-0.12665483355522156
1746521905071666700,1.654666748046875,-0.23567786812782288,-0.23557566106319427,-0.11488186568021774
1746521905081655800,1.66465576171875,-0.3699411451816559,-0.11558985710144043,-0.046770986169576645
1746521905091645700,1.674645751953125,-0.5054033994674683,-0.023045102134346962,0.05989561602473259
1746521905101635600,1.684635498046875,-0.5785250067710876,0.08347468823194504,0.18207798898220062
1746521905111625700,1.694625732421875,-0.5872398614883423,0.17089098691940308,0.29598936438560486
1746521905121615600,1.70461572265625,-0.5647143125534058,0.18916691839694977,0.39250391721725464
1746521905131605800,1.714605712890625,-0.537836492061615,0.14163759350776672,0.4681774079799652
1746521905141596000,1.724595947265625,-0.5368178486824036,0.03294653072953224,0.5089549422264099
1746521905151584800,1.734584716796875,-0.5705917477607727,-0.10463912785053253,0.5242928862571716
1746521905161575000,1.744574951171875,-0.6002734899520874,-0.18328307569026947,0.528300404548645
1746521905171564800,1.754564697265625,-0.6150500178337097,-0.17951849102973938,0.5338429808616638
1746521905181554700,1.7645546875,-0.5818822383880615,-0.13418084383010864,0.5216938853263855
1746521905191544800,1.774544921875,-0.5047019124031067,-0.07613574713468552,0.4707734286785126
1746521905201534700,1.78453466796875,-0.4064139425754547,-0.0052509247325360775,0.3654464781284332
1746521905211524600,1.794524658203125,-0.30713045597076416,0.09236107766628265,0.2400483787059784
1746521905221513700,1.804513671875,-0.2344474494457245,0.16462461650371552,0.1419481635093689
1746521905231503600,1.814503662109375,-0.2059050053358078,0.14144164323806763,0.10891377180814743
1746521905241493800,1.82449365234375,-0.21230724453926086,0.045317236334085464,0.16343000531196594
1746521905251483600,1.834483642578125,-0.25997287034988403,-0.03765374794602394,0.29170626401901245
1746521905261473500,1.8444736328125,-0.3468928635120392,-0.10582640767097473,0.3957040309906006
1746521905271463700,1.854463623046875,-0.45466670393943787,-0.17409160733222961,0.396665096282959
1746521905281453800,1.864453857421875,-0.5520182847976685,-0.2627841830253601,0.2570291757583618
1746521905291442700,1.874442626953125,-0.594496488571167,-0.3549322187900543,0.04975835233926773
1746521905301432800,1.884432861328125,-0.5906519889831543,-0.4048667550086975,-0.08296000957489014
1746521905311422700,1.894422607421875,-0.5907225012779236,-0.3992449939250946,-0.06141798198223114
1746521905321412900,1.904412841796875,-0.5960586667060852,-0.3581303060054779,0.07436807453632355
1746521905331402800,1.91440283203125,-0.6582772731781006,-0.2601228654384613,0.2662067711353302
1746521905341392600,1.924392578125,-0.6777356266975403,-0.16553327441215515,0.4082256853580475
1746521905351382800,1.9343828125,-0.6402985453605652,-0.07488570362329483,0.484225332736969
1746521905361371600,1.94437158203125,-0.5760841369628906,-0.003387290518730879,0.4495624303817749
1746521905371361800,1.95436181640625,-0.5324311852455139,0.034119125455617905,0.3009184002876282
1746521905381351700,1.9643515625,-0.5166807174682617,0.056142404675483704,0.10087345540523529
1746521905391341600,1.974341552734375,-0.5136959552764893,0.07640933245420456,-0.0728573128581047
1746521905401331700,1.984331787109375,-0.5056633353233337,0.09127030521631241,-0.18453402817249298
1746521905411321600,1.994321533203125,-0.5018854737281799,0.12461700290441513,-0.23570619523525238
1746521905421311700,2.004311767578125,-0.5047236084938049,0.1809556484222412,-0.26182886958122253
1746521905431302000,2.014302001953125,-0.5120298862457275,0.23774825036525726,-0.27589333057403564
1746521905441290800,2.024290771484375,-0.5090485215187073,0.25862210988998413,-0.28730151057243347
1746521905451281000,2.034281005859375,-0.49761393666267395,0.23776069283485413,-0.295512855052948
1746521905461270800,2.044270751953125,-0.4793853759765625,0.18194323778152466,-0.3146250247955322
1746521905471260700,2.0542607421875,-0.45498284697532654,0.14090090990066528,-0.3364647924900055
1746521905481250800,2.064250732421875,-0.425586074590683,0.13294097781181335,-0.3524189889431
1746521905491240700,2.07424072265625,-0.39102867245674133,0.1301499307155609,-0.3533255457878113
1746521905501230600,2.084230712890625,-0.3582574129104614,0.12642070651054382,-0.33955061435699463
1746521905511219700,2.0942197265625,-0.33089545369148254,0.10444772243499756,-0.31334343552589417
1746521905521209600,2.104209716796875,-0.3066242039203644,0.07067884504795074,-0.28036922216415405
1746521905531199700,2.11419970703125,-0.27954304218292236,0.06053817644715309,-0.25103768706321716
1746521905541189600,2.124189697265625,-0.23624880611896515,0.07575628161430359,-0.23029164969921112
1746521905551179500,2.134179443359375,-0.13923071324825287,0.09758587926626205,-0.20104354619979858
1746521905561170000,2.144169921875,-0.07899400591850281,0.06023930013179779,-0.18417774140834808
1746521905571159800,2.154159912109375,-0.051691751927137375,0.08185278624296188,-0.19577601552009583
1746521905581149700,2.164149658203125,-0.036216653883457184,0.12184175103902817,-0.22610169649124146
1746521905591139600,2.1741396484375,-0.02041756920516491,0.15722757577896118,-0.2615037262439728
1746521905601129500,2.18412939453125,0.01228018943220377,0.17527633905410767,-0.28965386748313904
1746521905611119600,2.19411962890625,0.042343441396951675,0.1744202971458435,-0.290741503238678
1746521905621109500,2.204109619140625,0.0638444721698761,0.16952088475227356,-0.25955215096473694
1746521905631099600,2.214099609375,0.08315306901931763,0.16887407004833221,-0.19457657635211945
1746521905641089800,2.22408984375,0.09278865158557892,0.15387514233589172,-0.11100845038890839
1746521905651078700,2.23407861328125,0.09776141494512558,0.14757394790649414,-0.022060444578528404
1746521905661068800,2.24406884765625,0.10600230097770691,0.13425254821777344,0.05515364930033684
1746521905671058700,2.25405859375,0.1284404993057251,0.09293493628501892,0.11471524834632874
1746521905681048600,2.264048583984375,0.1485726684331894,0.03187291696667671,0.156259223818779
1746521905691038700,2.274038818359375,0.14204369485378265,-0.007669392041862011,0.16818533837795258
1746521905701028600,2.284028564453125,0.11839669942855835,-0.025041457265615463,0.16209550201892853
1746521905711017700,2.294017822265625,0.08603321760892868,-0.026917066425085068,0.16438183188438416
1746521905721007600,2.304007568359375,0.06716711819171906,-0.004815492779016495,0.17135798931121826
1746521905730997500,2.31399755859375,0.052899934351444244,0.015389014035463333,0.1580568552017212
1746521905740987600,2.323987548828125,0.012188724242150784,-0.022823618724942207,0.10131794959306717
1746521905750977500,2.3339775390625,-0.05988909304141998,-0.10620816051959991,0.006689941044896841
1746521905760967400,2.343967529296875,-0.12464598566293716,-0.15370696783065796,-0.085555300116539
1746521905770957600,2.35395751953125,-0.16131898760795593,-0.1775379329919815,-0.11825890839099884
1746521905780946400,2.363946533203125,-0.167103111743927,-0.1360381692647934,-0.0464656762778759
1746521905790936600,2.3739365234375,-0.1530720591545105,0.015682755038142204,0.11644681543111801
1746521905800926700,2.3839267578125,-0.1435009241104126,0.20844236016273499,0.2609206438064575
1746521905810916600,2.39391650390625,-0.15553808212280273,0.3507883548736572,0.30546867847442627
1746521905820906800,2.40390673828125,-0.16774122416973114,0.38576605916023254,0.2628903388977051
1746521905830896600,2.413896728515625,-0.17331562936306,0.34680065512657166,0.2196888029575348
1746521905840886500,2.423886474609375,-0.22099527716636658,0.2677742838859558,0.2729536294937134
1746521905850875600,2.433875732421875,-0.2706044614315033,0.11163758486509323,0.378285676240921
1746521905860865500,2.443865478515625,-0.2384026050567627,-0.05384271964430809,0.5054963231086731
1746521905870855700,2.453855712890625,-0.11636601388454437,-0.17971128225326538,0.6156105995178223
1746521905880845600,2.463845458984375,0.033689528703689575,-0.24614277482032776,0.6547254920005798
1746521905890835500,2.47383544921875,0.145424485206604,-0.27373847365379333,0.5841101408004761
1746521905900825600,2.48382568359375,0.21458464860916138,-0.2693074941635132,0.4012516736984253
1746521905910815500,2.4938154296875,0.254789799451828,-0.255444198846817,0.15601366758346558
1746521905920804600,2.5038046875,0.27186304330825806,-0.2028646022081375,-0.10703794658184052
1746521905930794500,2.51379443359375,0.27551549673080444,-0.1232905164361,-0.36355677247047424
1746521905940784600,2.52378466796875,0.26641225814819336,-0.06693829596042633,-0.5888290405273438
1746521905950774800,2.53377490234375,0.24585305154323578,-0.06636212021112442,-0.7542083263397217
1746521905960764700,2.5437646484375,0.21759824454784393,-0.08988289535045624,-0.8329415321350098
1746521905970754600,2.553754638671875,0.18201974034309387,-0.11112640798091888,-0.8212606906890869
1746521905980744700,2.56374462890625,0.14155779778957367,-0.11889857798814774,-0.7339246869087219
1746521905990733600,2.573733642578125,0.08825259655714035,-0.13917259871959686,-0.6093135476112366
1746521906000723700,2.5837236328125,0.02483181655406952,-0.15235844254493713,-0.47405481338500977
1746521906010713600,2.593713623046875,-0.039464645087718964,-0.14738599956035614,-0.346954345703125
1746521906020703500,2.603703369140625,-0.09262560307979584,-0.1301441639661789,-0.23515458405017853
1746521906030693600,2.613693603515625,-0.13107967376708984,-0.10851482301950455,-0.15978583693504333
1746521906040683500,2.62368359375,-0.15170292556285858,-0.08308590203523636,-0.13744990527629852
1746521906050673400,2.63367333984375,-0.15566815435886383,-0.04362731799483299,-0.16775768995285034
1746521906060662500,2.64366259765625,-0.14823314547538757,0.005291224457323551,-0.2397245615720749
1746521906070652400,2.65365234375,-0.13140630722045898,0.04442621394991875,-0.33761993050575256
1746521906080642800,2.663642822265625,-0.09477611631155014,0.054946500808000565,-0.43713533878326416
1746521906090632700,2.6736328125,-0.05377741530537605,0.05412683263421059,-0.5161170363426208
1746521906100622600,2.68362255859375,-0.03879313915967941,0.05855140835046768,-0.5629454851150513
1746521906110612700,2.69361279296875,-0.04947612062096596,0.06074437499046326,-0.5517407059669495
1746521906120601600,2.7036015625,-0.075730100274086,0.037984732538461685,-0.4867819547653198
1746521906130591700,2.713591796875,-0.12909415364265442,-0.02869434654712677,-0.39645031094551086
1746521906140581600,2.72358154296875,-0.19931745529174805,-0.12268716096878052,-0.31050050258636475
1746521906150571500,2.733571533203125,-0.265604168176651,-0.2027629166841507,-0.2519504129886627
1746521906160561700,2.743561767578125,-0.3174859881401062,-0.22415076196193695,-0.20557092130184174
1746521906170551600,2.753551513671875,-0.336184024810791,-0.16663841903209686,-0.15700790286064148
1746521906180541400,2.76354150390625,-0.32323095202445984,-0.07021761685609818,-0.10722516477108002
1746521906190530600,2.773530517578125,-0.2874062657356262,0.05207246169447899,-0.06729050725698471
1746521906200520400,2.7835205078125,-0.2553985118865967,0.15554213523864746,-0.030894415453076363
1746521906210510600,2.793510498046875,-0.24239440262317657,0.21778357028961182,0.03503004088997841
1746521906220500500,2.80350048828125,-0.23820658028125763,0.247920960187912,0.13084259629249573
1746521906230490600,2.81349072265625,-0.24320994317531586,0.2656078338623047,0.2370273619890213
1746521906240480800,2.823480712890625,-0.2570783495903015,0.24943605065345764,0.3261740207672119
1746521906250470700,2.833470703125,-0.26375213265419006,0.1963699758052826,0.3676742911338806
1746521906260459800,2.843459716796875,-0.25848388671875,0.13627494871616364,0.3256419003009796
1746521906270449700,2.85344970703125,-0.2220325917005539,0.09946906566619873,0.2004980891942978
1746521906280439600,2.863439453125,-0.1848820298910141,0.05631094425916672,0.02569086104631424
1746521906290429700,2.8734296875,-0.16554813086986542,0.044067997485399246,-0.12670861184597015
1746521906300419600,2.883419677734375,-0.18615832924842834,0.03945700079202652,-0.18369466066360474
1746521906310409500,2.893409423828125,-0.23279117047786713,0.053353291004896164,-0.11567797511816025
1746521906320398600,2.903398681640625,-0.31209293007850647,0.037535179406404495,0.07452552020549774
1746521906330388500,2.913388427734375,-0.4470216631889343,-0.02041967585682869,0.2993013858795166
1746521906340378600,2.923378662109375,-0.5927351713180542,-0.14112664759159088,0.4401272237300873
1746521906350368500,2.933368408203125,-0.689218282699585,-0.24123705923557281,0.4411975145339966
1746521906360358400,2.9433583984375,-0.6941450834274292,-0.26982665061950684,0.3651283085346222
1746521906370348800,2.953348876953125,-0.6395087838172913,-0.2186298668384552,0.31184670329093933
1746521906380338700,2.963338623046875,-0.5508779883384705,-0.12037280201911926,0.3335501551628113
1746521906390327800,2.973327880859375,-0.44550684094429016,0.006731635890901089,0.3945818543434143
1746521906400317700,2.983317626953125,-0.3495613932609558,0.1199607253074646,0.40384620428085327
1746521906410307600,2.9933076171875,-0.2788761556148529,0.19121959805488586,0.2975535988807678
1746521906420297700,3.003297607421875,-0.23644985258579254,0.19583645462989807,0.11031337827444077
1746521906430287600,3.01328759765625,-0.22294224798679352,0.15664659440517426,-0.07453669607639313
1746521906440277500,3.023277587890625,-0.2500428557395935,0.10252876579761505,-0.17196257412433624
1746521906450266600,3.0332666015625,-0.2990044355392456,0.06736206263303757,-0.14465925097465515
1746521906460256500,3.043256591796875,-0.3579729497432709,0.05751688778400421,-0.022662509232759476
1746521906470246700,3.05324658203125,-0.4220944941043854,0.06473015248775482,0.13374808430671692
1746521906480236500,3.063236572265625,-0.47368791699409485,0.0656564012169838,0.23877836763858795
1746521906490226400,3.073226318359375,-0.5039249062538147,0.06743001937866211,0.25347477197647095
1746521906500216600,3.083216552734375,-0.5176287293434143,0.08381059020757675,0.1882483810186386
1746521906510205400,3.093205322265625,-0.5177487730979919,0.10399622470140457,0.0759819895029068
1746521906520195600,3.103195556640625,-0.502579927444458,0.12225139886140823,-0.045175060629844666
1746521906530185700,3.113185791015625,-0.47466644644737244,0.13003548979759216,-0.1481400579214096
1746521906540175600,3.123175537109375,-0.43890392780303955,0.1004222109913826,-0.22531846165657043
1746521906550165800,3.133165771484375,-0.4104444086551666,0.03976098448038101,-0.2647348642349243
1746521906560155600,3.14315576171875,-0.38436806201934814,-0.032665811479091644,-0.2516385018825531
1746521906570145500,3.1531455078125,-0.3609108328819275,-0.1033310815691948,-0.20788516104221344
1746521906580134000,3.1631337890625,-0.3376012444496155,-0.1541476547718048,-0.15939272940158844
1746521906590123800,3.173123779296875,-0.3100001811981201,-0.16800150275230408,-0.12802165746688843
1746521906600114000,3.183114013671875,-0.2751609683036804,-0.14945204555988312,-0.12866933643817902
1746521906610103800,3.193103759765625,-0.2326853722333908,-0.09292757511138916,-0.1566527932882309
1746521906620093700,3.20309375,-0.1852792501449585,-0.03240857645869255,-0.20455241203308105
1746521906630083800,3.213083740234375,-0.14910781383514404,-0.020897231996059418,-0.2628655433654785
1746521906640073700,3.22307373046875,-0.13096849620342255,-0.04247283190488815,-0.31782758235931396
1746521906650062800,3.233062744140625,-0.1216464564204216,-0.060216136276721954,-0.3530643880367279
1746521906660052700,3.243052734375,-0.12491069734096527,-0.05533189699053764,-0.350558876991272
1746521906670043000,3.25304296875,-0.13553185760974884,-0.02599153108894825,-0.3171210289001465
1746521906680032800,3.26303271484375,-0.14182649552822113,0.0057778507471084595,-0.2626327574253082
1746521906690023000,3.27302294921875,-0.14104124903678894,0.010995935648679733,-0.2002072036266327
1746521906700012800,3.2830126953125,-0.12684553861618042,0.028956027701497078,-0.12668238580226898
1746521906710002000,3.293001953125,-0.10396401584148407,0.0624542310833931,-0.04193445295095444
1746521906719991800,3.30299169921875,-0.0738585814833641,0.09662365913391113,0.04290587082505226
1746521906729982000,3.31298193359375,-0.03690994158387184,0.09559109061956406,0.10633303225040436
1746521906739971800,3.322971923828125,0.013444045558571815,0.05030404031276703,0.1427733302116394
1746521906749961700,3.332961669921875,0.056074872612953186,0.002699855715036392,0.14878056943416595
1746521906759952000,3.342951904296875,0.09258680790662766,-0.02030346542596817,0.12123255431652069
1746521906769940700,3.352940673828125,0.13352306187152863,-0.03078804723918438,0.07188370078802109
1746521906779931000,3.362930908203125,0.17497782409191132,-0.04306335374712944,0.02213665097951889
1746521906789920800,3.372920654296875,0.20309264957904816,-0.06715749949216843,-0.03381739556789398
1746521906799910700,3.38291064453125,0.23036262392997742,-0.1049293801188469,-0.10625271499156952
1746521906809900800,3.39290087890625,0.24567186832427979,-0.1601923108100891,-0.19823908805847168
1746521906819890700,3.402890625,0.23521097004413605,-0.21552987396717072,-0.2824048399925232
1746521906829879800,3.4128798828125,0.1957552433013916,-0.24292021989822388,-0.3240604102611542
1746521906839869700,3.42286962890625,0.15163065493106842,-0.24418522417545319,-0.29886502027511597
1746521906849859800,3.43285986328125,0.1282048523426056,-0.2411171942949295,-0.1936587393283844
1746521906859850000,3.44285009765625,0.15192349255084991,-0.20681728422641754,-0.042286790907382965
1746521906869840000,3.45283984375,0.19373787939548492,-0.11480284482240677,0.061067525297403336
1746521906879829800,3.462829833984375,0.21339893341064453,-0.01852451264858246,0.058711692690849304
1746521906889820000,3.47281982421875,0.2235761284828186,0.029318662360310555,-0.04614381119608879
1746521906899808800,3.482808837890625,0.2262645959854126,0.044486962258815765,-0.20770367980003357
1746521906909799000,3.492798828125,0.21952861547470093,0.05956263095140457,-0.32194772362709045
1746521906919788800,3.502788818359375,0.2093936949968338,0.09408199042081833,-0.21831798553466797
1746521906929778700,3.51277880859375,0.13394665718078613,0.11768244951963425,0.04154741019010544
1746521906939768800,3.522768798828125,0.06314092874526978,0.1118306815624237,0.3112332224845886
1746521906949758700,3.5327587890625,0.0350099541246891,0.09473025798797607,0.5573378205299377
1746521906959747800,3.542747802734375,0.02766176126897335,0.03745259344577789,0.7220021486282349
1746521906969737700,3.55273779296875,0.017428072169423103,-0.0576513335108757,0.7752488255500793
1746521906979728000,3.562727783203125,0.0278780497610569,-0.1310078352689743,0.7119588255882263
1746521906989717800,3.5727177734375,0.03830938786268234,-0.19483953714370728,0.550146222114563
1746521906999708000,3.5827080078125,0.06445816904306412,-0.22697590291500092,0.33673009276390076
1746521907009697800,3.59269775390625,0.1064964309334755,-0.2328777313232422,0.14294622838497162
1746521907019687000,3.60268701171875,0.15497474372386932,-0.20694974064826965,0.003414163365960121
1746521907029676800,3.6126767578125,0.1932889223098755,-0.16432054340839386,-0.07991913706064224
1746521907039667000,3.6226669921875,0.20913685858249664,-0.123020239174366,-0.1231883242726326
1746521907049656800,3.63265673828125,0.21444396674633026,-0.09523019194602966,-0.141523078083992
1746521907059646700,3.642646728515625,0.21594013273715973,-0.09243733435869217,-0.1560641974210739
1746521907069636900,3.652636962890625,0.20801980793476105,-0.09389301389455795,-0.18296878039836884
1746521907079625700,3.662625732421875,0.193733811378479,-0.0820627212524414,-0.22618308663368225
1746521907089616000,3.672615966796875,0.17309582233428955,-0.051956746727228165,-0.2774342894554138
1746521907099605800,3.682605712890625,0.14473555982112885,-0.012199479155242443,-0.3310950994491577
1746521907109595600,3.692595703125,0.11261487752199173,0.00012551189865916967,-0.37977078557014465
1746521907119585800,3.702585693359375,0.08504077047109604,-0.017935778945684433,-0.41080620884895325
1746521907129575700,3.71257568359375,0.059232063591480255,-0.038489628583192825,-0.40876704454421997
1746521907139565800,3.72256591796875,0.028000639751553535,-0.04204574599862099,-0.3647891879081726
1746521907149554700,3.7325546875,0.009012710303068161,-0.039257362484931946,-0.29188409447669983
1746521907159544800,3.742544921875,-0.005425085313618183,-0.027457164600491524,-0.207930326461792
1746521907169535000,3.752534912109375,-0.014082105830311775,-0.01719926856458187,-0.12777695059776306
1746521907179524900,3.76252490234375,-0.01498678233474493,-0.014316396787762642,-0.06963294744491577
1746521907189514800,3.7725146484375,-0.001328971586190164,-0.01046567503362894,-0.04055707901716232
1746521907199505000,3.7825048828125,0.026796672493219376,-0.00922597385942936,-0.048573195934295654
1746521907209493800,3.79249365234375,0.06369376182556152,-0.00048806960694491863,-0.08994108438491821
1746521907219484000,3.80248388671875,0.10009358078241348,-0.003877208335325122,-0.16912005841732025
1746521907229473800,3.812473876953125,0.13100235164165497,-0.015545101836323738,-0.27035000920295715
1746521907239463700,3.822463623046875,0.15742464363574982,-0.024322081357240677,-0.36957645416259766
1746521907249453800,3.832453857421875,0.1751207858324051,-0.039118457585573196,-0.43583884835243225
1746521907259443700,3.842443603515625,0.18065990507602692,-0.026161111891269684,-0.4486958086490631
1746521907269432800,3.852432861328125,0.17466291785240173,-0.007396739907562733,-0.400821715593338
1746521907279422700,3.862422607421875,0.1546391397714615,-0.00957840122282505,-0.3112822473049164
1746521907289412900,3.872412841796875,0.12591637670993805,-0.015942228958010674,-0.19339847564697266
1746521907299403000,3.882403076171875,0.08685126900672913,-0.02249067649245262,-0.05576605349779129
1746521907309393000,3.892392822265625,0.04043101519346237,-0.036340828984975815,0.07406674325466156
1746521907319382800,3.9023828125,-0.0015585118671879172,-0.04227568581700325,0.17167799174785614
1746521907329372000,3.912371826171875,-0.0395045205950737,-0.043130602687597275,0.22865207493305206
1746521907339361800,3.92236181640625,-0.07317274063825607,-0.020917709916830063,0.24867798388004303
1746521907349352000,3.93235205078125,-0.08502180874347687,0.011972630396485329,0.22053790092468262
1746521907359341800,3.942341796875,-0.07938389480113983,0.06028822809457779,0.14801949262619019
1746521907369331700,3.952331787109375,-0.0614483542740345,0.1160779520869255,0.04723060876131058
1746521907379321900,3.96232177734375,-0.04653624817728996,0.17135798931121826,-0.04945385828614235
1746521907389310700,3.972310791015625,-0.045370668172836304,0.22155457735061646,-0.10867029428482056
1746521907399300900,3.98230078125,-0.05117635801434517,0.25411173701286316,-0.0943978801369667
1746521907409290800,3.992290771484375,-0.07274174690246582,0.255166620016098,-0.0021665035746991634
1746521907419280600,4.00228076171875,-0.10868377238512039,0.2399463653564453,0.13029326498508453
1746521907429270800,4.012270751953125,-0.14326420426368713,0.19049014151096344,0.2507592439651489
1746521907439260700,4.0222607421875,-0.17347563803195953,0.07953272759914398,0.29029226303100586
1746521907449249800,4.032249755859375,-0.18666017055511475,-0.0281126257032156,0.21421745419502258
1746521907459239700,4.04223974609375,-0.16811898350715637,-0.06969974935054779,0.09876541793346405
1746521907469229800,4.052229736328125,-0.12083080410957336,-0.05898306891322136,0.04389527812600136
1746521907479220000,4.062219970703125,-0.10858532786369324,-0.01543053425848484,0.09566846489906311
1746521907489209900,4.0722099609375,-0.10337105393409729,0.029676366597414017,0.27244052290916443
1746521907499199700,4.08219970703125,-0.07056383788585663,0.061067845672369,0.4821290373802185
1746521907509188900,4.09218896484375,-0.04630153626203537,0.10875371843576431,0.6297520399093628
1746521907519178800,4.1021787109375,-0.03312501311302185,0.14688405394554138,0.6755927801132202
1746521907529169000,4.1121689453125,-0.023464594036340714,0.15460552275180817,0.6304281949996948
1746521907539158800,4.12215869140625,-0.030313711613416672,0.15120600163936615,0.5278773307800293
1746521907549148700,4.132148681640625,-0.05811881273984909,0.13714174926280975,0.40764740109443665
1746521907559138800,4.142138916015625,-0.1051236093044281,0.12247412651777267,0.28991249203681946
1746521907569127700,4.152127685546875,-0.15947169065475464,0.09754066169261932,0.20862272381782532
1746521907579118000,4.1621181640625,-0.21279989182949066,0.07065524905920029,0.16139821708202362
1746521907589108000,4.17210791015625,-0.25167611241340637,0.052977073937654495,0.12630493938922882
1746521907599097900,4.182097900390625,-0.2670518755912781,0.05415578931570053,0.09231980890035629
1746521907609088000,4.192087890625,-0.2632276117801666,0.07155080139636993,0.060411129146814346
1746521907619078000,4.202077880859375,-0.2510684132575989,0.1047108918428421,0.019786734133958817
1746521907629067000,4.21206689453125,-0.2303372323513031,0.1457487791776657,-0.0262446291744709
1746521907639057000,4.222056884765625,-0.20437727868556976,0.1930513083934784,-0.07993368804454803
1746521907649046800,4.232046875,-0.17521671950817108,0.21961234509944916,-0.12981124222278595
1746521907659037000,4.242036865234375,-0.15461823344230652,0.23747336864471436,-0.1655082404613495
1746521907669026800,4.25202685546875,-0.13861921429634094,0.24348652362823486,-0.18002142012119293
1746521907679016000,4.262015869140625,-0.1294744461774826,0.23010919988155365,-0.17897507548332214
1746521907689005800,4.272005859375,-0.12733502686023712,0.17733822762966156,-0.1554921418428421
1746521907698996000,4.281995849609375,-0.13335056602954865,0.09954994916915894,-0.1185450404882431
1746521907708986000,4.291986083984375,-0.1517755687236786,0.01976776495575905,-0.0760095864534378
1746521907718976000,4.30197607421875,-0.18014569580554962,-0.02661864459514618,-0.05115563049912453
1746521907728966000,4.3119658203125,-0.1989116221666336,-0.04842386767268181,-0.06620411574840546
1746521907738955000,4.321955078125,-0.19483192265033722,-0.035160262137651443,-0.1170039176940918
1746521907748945000,4.33194482421875,-0.18011720478534698,-0.010063720867037773,-0.18591338396072388
1746521907758935000,4.34193505859375,-0.15535832941532135,0.02527403086423874,-0.2686716616153717
1746521907768925000,4.351925048828125,-0.12535078823566437,0.05720357969403267,-0.3422393202781677
1746521907778914800,4.361914794921875,-0.10587108880281448,0.05536147207021713,-0.39153948426246643
1746521907788905000,4.371905029296875,-0.09593326598405838,0.030699416995048523,-0.4175751209259033
1746521907798893800,4.381893798828125,-0.09131960570812225,-0.002455873880535364,-0.4250412881374359
1746521907808884000,4.391884033203125,-0.08198633044958115,-0.01782892644405365,-0.4174012243747711
1746521907818873900,4.401873779296875,-0.07097895443439484,-0.01253163255751133,-0.37644848227500916
1746521907828863700,4.41186376953125,-0.050260353833436966,-0.004880370106548071,-0.30049964785575867
1746521907838854100,4.421854248046875,-0.02887091226875782,0.01075265184044838,-0.20114856958389282
1746521907848844000,4.431843994140625,-0.011325168423354626,0.05921521410346031,-0.0928625538945198
1746521907858833200,4.441833251953125,-0.0017407177947461605,0.10630602389574051,0.004603816196322441
1746521907868823000,4.451822998046875,0.007353384513407946,0.11468072980642319,0.0934586375951767
1746521907878813000,4.46181298828125,0.015233145095407963,0.057619836181402206,0.1714082956314087
1746521907888803000,4.471802978515625,0.033583857119083405,-0.035478223115205765,0.2389867603778839
1746521907898793000,4.48179296875,0.05175380781292915,-0.13339999318122864,0.30702170729637146
1746521907908782800,4.491782958984375,0.057348769158124924,-0.22234228253364563,0.3555370569229126
1746521907918772000,4.50177197265625,0.05474952608346939,-0.3067338466644287,0.35927242040634155
1746521907928761900,4.511761962890625,0.04791852831840515,-0.376204252243042,0.30418044328689575
1746521907938752000,4.521751953125,0.04610970988869667,-0.4402844309806824,0.18913055956363678
1746521907948742000,4.531741943359375,0.03494538366794586,-0.47667592763900757,0.03846719115972519
1746521907958731800,4.541731689453125,0.023230137303471565,-0.48959439992904663,-0.10495414584875107
1746521907968722000,4.551721923828125,0.012498756870627403,-0.46653592586517334,-0.20341065526008606
1746521907978710800,4.561710693359375,-0.0013616643846035004,-0.4236198961734772,-0.2095409780740738
1746521907988701000,4.571700927734375,-0.017567718401551247,-0.35894885659217834,-0.1247863620519638
1746521907998690800,4.58169091796875,-0.016235072165727615,-0.2654239535331726,0.028147518634796143
1746521908008681000,4.591680908203125,-0.006031788885593414,-0.15613260865211487,0.2167574018239975
1746521908018671000,4.601671142578125,-0.006634462159126997,-0.0169582087546587,0.36712026596069336
1746521908028660000,4.611659912109375,-0.04444196820259094,0.09838077425956726,0.3921357989311218
1746521908038650000,4.621650146484375,-0.0637269839644432,0.1810293197631836,0.2917570173740387
1746521908048640000,4.631639892578125,-0.022655831649899483,0.21375012397766113,0.1508224755525589
1746521908058630000,4.6416298828125,-0.011594925075769424,0.23559150099754333,0.11448736488819122
1746521908068620000,4.6516201171875,-0.07866590470075607,0.22578604519367218,0.16857334971427917
1746521908078610000,4.66160986328125,-0.1359632909297943,0.15954311192035675,0.2644064128398895
1746521908088599000,4.67159912109375,-0.1329800933599472,0.04791086167097092,0.3539977967739105
1746521908098589000,4.6815888671875,-0.0655432641506195,-0.06974014639854431,0.3717528283596039
1746521908108578800,4.691578857421875,0.026290254667401314,-0.1789449155330658,0.3232673406600952
1746521908118569000,4.70156884765625,0.12192783504724503,-0.2685118317604065,0.24319486320018768
1746521908128558800,4.711558837890625,0.20589229464530945,-0.316144198179245,0.1843474805355072
1746521908138548700,4.721548828125,0.26449382305145264,-0.302397757768631,0.19157902896404266
1746521908148537900,4.731537841796875,0.28372296690940857,-0.2650573253631592,0.2502173185348511
1746521908158527700,4.74152783203125,0.2720271646976471,-0.2364262193441391,0.3212518095970154
1746521908168518100,4.75151806640625,0.24351514875888824,-0.21210847795009613,0.35569101572036743
1746521908178508000,4.761508056640625,0.19279497861862183,-0.19210360944271088,0.3339817225933075
1746521908188498000,4.771497802734375,0.13688352704048157,-0.18703311681747437,0.25188177824020386
1746521908198487000,4.781487060546875,0.09539707005023956,-0.17097344994544983,0.12970368564128876
1746521908208477000,4.791476806640625,0.06804241240024567,-0.13829539716243744,-0.017087355256080627
1746521908218467000,4.801467041015625,0.040355924516916275,-0.10424023121595383,-0.1567469835281372
1746521908228457000,4.81145703125,0.0022885040380060673,-0.07308588176965714,-0.24925455451011658
1746521908238446800,4.82144677734375,-0.04360148683190346,-0.041679494082927704,-0.2980303466320038
1746521908248437000,4.83143701171875,-0.07301732152700424,-0.022263338789343834,-0.3130258023738861
1746521908258425900,4.84142578125,-0.09850164502859116,0.006961124949157238,-0.3040293753147125
1746521908268416000,4.851416015625,-0.12484124302864075,0.045422445982694626,-0.2771521806716919
1746521908278406000,4.861406005859375,-0.14594466984272003,0.07089398056268692,-0.24512769281864166
1746521908288395800,4.871395751953125,-0.15740375220775604,0.09902980923652649,-0.22492572665214539
1746521908298386000,4.881385986328125,-0.15792013704776764,0.14046832919120789,-0.24292603135108948
1746521908308376000,4.8913759765625,-0.14691677689552307,0.19020619988441467,-0.2942174971103668
1746521908318365000,4.901364990234375,-0.12787757813930511,0.21855528652668,-0.36917856335639954
1746521908328355000,4.91135498046875,-0.10523619502782822,0.21214736998081207,-0.45377275347709656
1746521908338345000,4.921344970703125,-0.08873338252305984,0.16802570223808289,-0.5242144465446472
1746521908348335000,4.931335205078125,-0.08501014113426208,0.10409417748451233,-0.5520899891853333
1746521908358325000,4.941324951171875,-0.10358808934688568,0.0767030343413353,-0.5126630067825317
1746521908368314000,4.951314208984375,-0.14530159533023834,0.08391082286834717,-0.4116556644439697
1746521908378304000,4.961303955078125,-0.19686944782733917,0.08014005422592163,-0.27676868438720703
1746521908388294000,4.9712939453125,-0.25309309363365173,0.04761524498462677,-0.1303025633096695
1746521908398284000,4.981283935546875,-0.31031858921051025,0.003356701461598277,-0.008166003972291946
1746521908408274000,4.99127392578125,-0.3530924916267395,-0.033130910247564316,0.0785219743847847
1746521908418263800,5.001263916015625,-0.3685912787914276,-0.041078049689531326,0.13588114082813263
1746521908428253000,5.0112529296875,-0.35746341943740845,-0.02183295600116253,0.17136411368846893
1746521908438242800,5.021242919921875,-0.32509031891822815,0.016693398356437683,0.17056089639663696
1746521908448233000,5.03123291015625,-0.28474193811416626,0.06435008347034454,0.1432397961616516
1746521908458222800,5.041222900390625,-0.2560109496116638,0.09426909685134888,0.09852825105190277
1746521908468212700,5.051212646484375,-0.2403710037469864,0.1069565862417221,0.043153878301382065
1746521908478203100,5.061203125,-0.23862449824810028,0.09498940408229828,-0.016100125387310982
1746521908488191700,5.071191650390625,-0.2565664052963257,0.06536094844341278,-0.07842125743627548
1746521908498182100,5.08118212890625,-0.2951079308986664,0.03004210628569126,-0.1323731690645218
1746521908508172000,5.091172119140625,-0.3478716313838959,-0.006727901287376881,-0.15856218338012695
1746521908518162000,5.101161865234375,-0.3955613970756531,-0.02692425064742565,-0.1401914358139038
1746521908528152000,5.111152099609375,-0.4446555972099304,-0.0315103642642498,-0.07915231585502625
1746521908538141000,5.121140869140625,-0.494600772857666,-0.03060702234506607,0.011327257379889488
1746521908548131000,5.131131103515625,-0.5555520057678223,-0.029474526643753052,0.11857251822948456
1746521908558121000,5.141120849609375,-0.629998505115509,-0.04035007581114769,0.24824635684490204
1746521908568110800,5.15111083984375,-0.7044609785079956,-0.08297301083803177,0.3516624867916107
1746521908578101500,5.1611015625,-0.7650800943374634,-0.1509304940700531,0.3584231734275818
1746521908588091400,5.17109130859375,-0.8107035756111145,-0.19177848100662231,0.27843594551086426
1746521908598080500,5.18108056640625,-0.7704073190689087,-0.19964785873889923,0.16216154396533966
1746521908608070400,5.1910703125,-0.6592945456504822,-0.148545041680336,0.07351822406053543
1746521908618060300,5.201060302734375,-0.5349278450012207,-0.05229094624519348,0.08738717436790466
1746521908628050700,5.21105078125,-0.41086605191230774,0.037459347397089005,0.2287302017211914
1746521908638040600,5.22104052734375,-0.3233164846897125,0.07313079386949539,0.4125514328479767
1746521908648029400,5.231029541015625,-0.29297199845314026,0.040844518691301346,0.5508689880371094
1746521908658019600,5.24101953125,-0.3006381690502167,-0.033294688910245895,0.6097626686096191
1746521908668009500,5.251009521484375,-0.3221800923347473,-0.09571516513824463,0.5768283009529114
1746521908677999600,5.26099951171875,-0.33741363883018494,-0.1177738606929779,0.48641419410705566
1746521908687989500,5.270989501953125,-0.34331101179122925,-0.09155431389808655,0.3697413504123688
1746521908697978600,5.280978515625,-0.35095080733299255,-0.03143984451889992,0.2536560297012329
1746521908707968500,5.290968505859375,-0.36736205220222473,0.04058024659752846,0.15270225703716278
1746521908717958400,5.30095849609375,-0.40712225437164307,0.09656495600938797,0.06365308165550232
1746521908727948500,5.310948486328125,-0.45888155698776245,0.12279215455055237,-0.02332412824034691
1746521908737938400,5.3209384765625,-0.5049439072608948,0.10790721327066422,-0.11384124308824539
1746521908747928300,5.33092822265625,-0.5341876745223999,0.07708447426557541,-0.22075970470905304
1746521908757917400,5.34091748046875,-0.5370007753372192,0.06293483078479767,-0.34411412477493286
1746521908767907300,5.3509072265625,-0.5122122168540955,0.07306526601314545,-0.4723674952983856
1746521908777897500,5.3608974609375,-0.4629663825035095,0.095504529774189,-0.5885998010635376
1746521908787887600,5.3708876953125,-0.4048284590244293,0.12282691895961761,-0.668444037437439
1746521908797877500,5.38087744140625,-0.34384632110595703,0.12241945415735245,-0.6870715618133545
1746521908807866600,5.39086669921875,-0.29826340079307556,0.1023179143667221,-0.645125150680542
1746521908817856500,5.4008564453125,-0.27311915159225464,0.07388441264629364,-0.5497254133224487
1746521908827846400,5.410846435546875,-0.25879204273223877,0.059831224381923676,-0.4229152202606201
1746521908837836500,5.42083642578125,-0.25106194615364075,0.06177480146288872,-0.2799335718154907
1746521908847826400,5.430826416015625,-0.25576427578926086,0.07652117311954498,-0.1296233981847763
1746521908857816600,5.440816650390625,-0.26452580094337463,0.09266764670610428,-0.04050922393798828
1746521908867805400,5.450805419921875,-0.253066748380661,0.10415379703044891,-0.011399563401937485
1746521908877795600,5.460795654296875,-0.20624303817749023,0.0902121514081955,-0.048536013811826706
1746521908887785500,5.470785400390625,-0.13844679296016693,0.062364429235458374,-0.13684405386447906
1746521908897775400,5.480775390625,-0.076211117208004,0.040953412652015686,-0.24689358472824097
1746521908907765500,5.490765625,-0.025301136076450348,0.030333632603287697,-0.33172112703323364
1746521908917754400,5.50075439453125,0.019201617687940598,0.046992503106594086,-0.3608364164829254
1746521908927744500,5.51074462890625,0.04326433315873146,0.08827228099107742,-0.3301376402378082
1746521908937734400,5.520734375,0.05140135437250137,0.12111438810825348,-0.25354939699172974
1746521908947724300,5.530724365234375,0.04434441030025482,0.10291903465986252,-0.15660445392131805
1746521908957714400,5.54071435546875,0.0383744016289711,0.07692418992519379,-0.06358769536018372
1746521908967704600,5.55070458984375,0.037572745233774185,0.07093523442745209,0.01590396650135517
1746521908977693400,5.560693359375,0.044795770198106766,0.07095148414373398,0.06173856556415558
1746521908987683600,5.57068359375,0.05353963375091553,0.05863728001713753,0.0863376259803772
1746521908997673500,5.580673583984375,0.061592232435941696,0.049963098019361496,0.10742879658937454
1746521909007663600,5.59066357421875,0.07425731420516968,0.06572224199771881,0.13009093701839447
1746521909017653500,5.600653564453125,0.08954279869794846,0.07542973011732101,0.14529599249362946
1746521909027642400,5.610642333984375,0.10795313864946365,0.08104173094034195,0.14658237993717194
1746521909037632500,5.620632568359375,0.12147027999162674,0.08542103320360184,0.13574330508708954
1746521909047622400,5.630622314453125,0.133510023355484,0.10149206966161728,0.13228249549865723
1746521909057612500,5.640612548828125,0.14233359694480896,0.11141554266214371,0.14748062193393707
1746521909067602400,5.6506025390625,0.1435622125864029,0.11553502082824707,0.16055245697498322
1746521909077591300,5.66059130859375,0.135336771607399,0.10501153767108917,0.1775764524936676
1746521909087581400,5.67058154296875,0.12065461277961731,0.08527762442827225,0.19277779757976532
1746521909097571300,5.6805712890625,0.09841535985469818,0.07798722386360168,0.2161981612443924
1746521909107561500,5.6905615234375,0.07060608267784119,0.08079329133033752,0.25152260065078735
1746521909117551600,5.700551513671875,0.048210758715867996,0.09217032045125961,0.29786479473114014
1746521909127540200,5.710540283203125,0.05638783052563667,0.11659400165081024,0.35719653964042664
1746521909137530600,5.720530517578125,0.0938318744301796,0.14420191943645477,0.4003751575946808
1746521909147520500,5.7305205078125,0.12107188999652863,0.1944265365600586,0.3698683977127075
1746521909157510400,5.740510498046875,0.12442827224731445,0.25424352288246155,0.2738792598247528
1746521909167500500,5.75050048828125,0.14215658605098724,0.25658443570137024,0.1329549252986908
1746521909177490400,5.760490478515625,0.17568178474903107,0.18973083794116974,0.03701668232679367
1746521909187479600,5.7704794921875,0.1730106770992279,0.14384374022483826,0.10660696029663086
1746521909197469400,5.780469482421875,0.09194698184728622,0.0757049024105072,0.23945263028144836
1746521909207459300,5.790459228515625,0.04069124907255173,-0.05244862288236618,0.3694538176059723
1746521909217449500,5.800449462890625,0.04497095197439194,-0.1793525069952011,0.4650668799877167
1746521909227439400,5.810439453125,0.08649203926324844,-0.30377689003944397,0.47566601634025574
1746521909237428500,5.820428466796875,0.14906194806098938,-0.40472933650016785,0.39560791850090027
1746521909247418400,5.83041845703125,0.2199445515871048,-0.4640944302082062,0.25804948806762695
1746521909257408300,5.840408203125,0.2673538625240326,-0.43077319860458374,0.1300385445356369
1746521909267398400,5.8503984375,0.2720958888530731,-0.3519929349422455,0.0513806976377964
1746521909277388500,5.860388427734375,0.22907091677188873,-0.28588607907295227,0.033109281212091446
1746521909287377400,5.87037744140625,0.15915974974632263,-0.22122175991535187,0.05946604162454605
1746521909297367600,5.880367431640625,0.07098223268985748,-0.15033186972141266,0.10141642391681671
1746521909307357400,5.890357421875,-0.018495963886380196,-0.09836770594120026,0.12430211156606674
1746521909317347600,5.90034765625,-0.0935845822095871,-0.07936178892850876,0.11202307790517807
1746521909327337500,5.91033740234375,-0.14426639676094055,-0.09831371903419495,0.050276294350624084
1746521909337326600,5.92032666015625,-0.17829680442810059,-0.13843877613544464,-0.04362916201353073
1746521909347316500,5.93031640625,-0.19602395594120026,-0.17451323568820953,-0.14517627656459808
1746521909357306400,5.940306396484375,-0.19416454434394836,-0.17994849383831024,-0.22965946793556213
1746521909367296500,5.950296630859375,-0.2013883888721466,-0.14489199221134186,-0.2769656479358673
1746521909377286400,5.960286376953125,-0.22636404633522034,-0.09443707764148712,-0.2825681269168854
1746521909387276300,5.9702763671875,-0.2662868797779083,-0.03210501745343208,-0.26174360513687134
1746521909397265400,5.980265380859375,-0.30637624859809875,0.028076032176613808,-0.22963841259479523
1746521909407255300,5.99025537109375,-0.34618058800697327,0.08802767097949982,-0.19155147671699524
1746521909417245400,6.000245361328125,-0.38125550746917725,0.13433951139450073,-0.1688229888677597
1746521909427235300,6.0102353515625,-0.40060168504714966,0.1493961364030838,-0.17363929748535156
1746521909437225200,6.02022509765625,-0.4098561704158783,0.1264101266860962,-0.2183031588792801
1746521909447214300,6.03021435546875,-0.4228050112724304,0.08481381088495255,-0.28742530941963196
1746521909457204200,6.040204345703125,-0.43574264645576477,0.04151560738682747,-0.34846043586730957
1746521909467194600,6.050194580078125,-0.44717302918434143,0.01322886347770691,-0.38398295640945435
1746521909477184500,6.0601845703125,-0.46388089656829834,-0.017378846183419228,-0.39404594898223877
1746521909487174400,6.07017431640625,-0.4937556982040405,-0.016036096960306168,-0.3810543119907379
1746521909497163500,6.08016357421875,-0.5264989733695984,0.011167027056217194,-0.3334295451641083
1746521909507153400,6.0901533203125,-0.5701074004173279,0.03948449343442917,-0.24744641780853271
1746521909517143600,6.1001435546875,-0.6160604953765869,0.041521281003952026,-0.1496090590953827
1746521909527133400,6.110133544921875,-0.6610036492347717,0.02307349257171154,-0.072159044444561
1746521909537123300,6.120123291015625,-0.7052672505378723,0.0005463468842208385,-0.025521496310830116
1746521909547112400,6.130112548828125,-0.7401769757270813,-0.03872723504900932,-0.005727811250835657
1746521909557102300,6.140102294921875,-0.7584230899810791,-0.08678983151912689,0.018542375415563583
1746521909567092500,6.150092529296875,-0.7619950175285339,-0.11090290546417236,0.03517485409975052
1746521909577082400,6.160082275390625,-0.7505306601524353,-0.11907188594341278,0.05299193412065506
1746521909587073000,6.170072998046875,-0.7187275290489197,-0.13900598883628845,0.041491664946079254
1746521909597062100,6.180062255859375,-0.6768045425415039,-0.1828906238079071,-0.023049775511026382
1746521909607052000,6.190052001953125,-0.6487802267074585,-0.25762438774108887,-0.12811926007270813
1746521909617042200,6.200042236328125,-0.6282336711883545,-0.32397037744522095,-0.24345383048057556
1746521909627032000,6.210031982421875,-0.6054026484489441,-0.35130608081817627,-0.3384157419204712
1746521909637022000,6.22002197265625,-0.580601692199707,-0.34205904603004456,-0.3899897336959839
1746521909647012400,6.230012451171875,-0.572579026222229,-0.28753766417503357,-0.38256940245628357
1746521909657001000,6.2400009765625,-0.5815970301628113,-0.18586987257003784,-0.28061747550964355
1746521909666991400,6.249991455078125,-0.5937415957450867,-0.10801224410533905,-0.148645281791687
1746521909676981200,6.259981201171875,-0.6004615426063538,-0.06463600695133209,-0.03139403089880943
1746521909686971100,6.26997119140625,-0.6272098422050476,-0.03704579919576645,0.064694344997406
1746521909696961300,6.279961181640625,-0.6777076721191406,-0.043216872960329056,0.0771574079990387
1746521909706950100,6.2899501953125,-0.6984078884124756,-0.05728123337030411,0.0012762497644871473
1746521909716940300,6.299940185546875,-0.6605814099311829,-0.08454161882400513,-0.13883504271507263
1746521909726930200,6.30993017578125,-0.5724722743034363,-0.10227063298225403,-0.27818384766578674
1746521909736920000,6.319920166015625,-0.46280255913734436,-0.10594126582145691,-0.34716877341270447
1746521909746910200,6.32991015625,-0.38403937220573425,-0.11071009188890457,-0.30384528636932373
1746521909756899000,6.339899169921875,-0.3438110053539276,-0.11746440082788467,-0.11072909832000732
1746521909766889200,6.34988916015625,-0.32049816846847534,-0.13732381165027618,0.1431788057088852
1746521909776879000,6.359879150390625,-0.3397890329360962,-0.1553667187690735,0.34162187576293945
1746521909786869000,6.369868896484375,-0.4008793234825134,-0.1388058215379715,0.45110732316970825
1746521909796859100,6.379859130859375,-0.44986283779144287,-0.08477985858917236,0.5144628286361694
1746521909806849300,6.389849365234375,-0.4667118489742279,-0.016148766502738,0.5292700529098511
1746521909816838100,6.399838134765625,-0.46877047419548035,0.06032869964838028,0.4902166426181793
1746521909826828300,6.409828369140625,-0.47232934832572937,0.13350453972816467,0.38627082109451294
1746521909836818200,6.419818115234375,-0.47811588644981384,0.21142570674419403,0.2445315271615982
1746521909846808300,6.429808349609375,-0.4829559922218323,0.27699920535087585,0.1003335639834404
1746521909856798200,6.439798095703125,-0.4848271310329437,0.3186803460121155,-0.02607683464884758
1746521909866787000,6.449787109375,-0.4769761562347412,0.3089485168457031,-0.13102321326732635
1746521909876777200,6.459777099609375,-0.4623338282108307,0.24327844381332397,-0.23578956723213196
1746521909886767000,6.46976708984375,-0.4273354113101959,0.13525967299938202,-0.336731880903244
1746521909896757200,6.47975732421875,-0.36236491799354553,0.049933597445487976,-0.38685521483421326
1746521909906747100,6.4897470703125,-0.29960644245147705,0.018107445910573006,-0.3718493580818176
1746521909916736000,6.499736083984375,-0.26209527254104614,0.01301548257470131,-0.3131130635738373
1746521909926726100,6.50972607421875,-0.23230595886707306,0.0018763632979243994,-0.2318619191646576
1746521909936716000,6.519716064453125,-0.21334131062030792,-0.018150875344872475,-0.15036733448505402
1746521909946706200,6.5297060546875,-0.1959218829870224,-0.04394833743572235,-0.06999049335718155
1746521909956696000,6.539696044921875,-0.1801423877477646,-0.07391103357076645,-0.012695779092609882
1746521909966686000,6.54968603515625,-0.16845174133777618,-0.11164652556180954,0.016382770612835884
1746521909976675000,6.559675048828125,-0.15403418242931366,-0.14892810583114624,0.014461565762758255
1746521909986665000,6.5696650390625,-0.1318868100643158,-0.16753481328487396,-0.010889597237110138
1746521909996655000,6.579655029296875,-0.09322463721036911,-0.15452128648757935,-0.048717670142650604
1746521910006645200,6.589645263671875,-0.04871575906872749,-0.08992977440357208,-0.09255170077085495
1746521910016635100,6.59963525390625,-0.015235829167068005,-0.009998989291489124,-0.127635657787323
1746521910026624300,6.609624267578125,0.015375805087387562,0.05507891997694969,-0.1390576809644699
1746521910036614100,6.6196142578125,0.04881445690989494,0.07832299172878265,-0.126570925116539
1746521910046604000,6.62960400390625,0.08571574091911316,0.07087863981723785,-0.08622327446937561
1746521910056594200,6.63959423828125,0.10884103178977966,0.05359632149338722,-0.01827351748943329
1746521910066584000,6.649583984375,0.09745288640260696,0.037203576415777206,0.0708598718047142
1746521910076574200,6.65957421875,0.08836112171411514,0.004570264369249344,0.15361307561397552
1746521910086563000,6.66956298828125,0.09227634221315384,-0.04140057787299156,0.22388193011283875
1746521910096553000,6.679552978515625,0.11401066929101944,-0.0658758208155632,0.2748846411705017
1746521910106543000,6.689543212890625,0.1535639613866806,-0.05480514094233513,0.3138636648654938
1746521910116533000,6.699532958984375,0.201187402009964,-0.021217091009020805,0.3428625762462616
1746521910126523100,6.709523193359375,0.2502416670322418,0.012920543551445007,0.36423927545547485
1746521910136512000,6.719511962890625,0.2933925986289978,0.03232087194919586,0.366097629070282
1746521910146502100,6.729502197265625,0.32255637645721436,0.0330079048871994,0.3461478352546692
1746521910156492300,6.7394921875,0.3461487889289856,0.02470044046640396,0.28269484639167786
1746521910166482200,6.749482177734375,0.3485495448112488,-0.0065518333576619625,0.1889527142047882
1746521910176472000,6.75947216796875,0.31816020607948303,-0.0843728631734848,0.05074823275208473
1746521910186461200,6.769461181640625,0.2806655168533325,-0.18322482705116272,-0.09151998162269592
1746521910196451000,6.779451171875,0.2553737461566925,-0.2349729835987091,-0.15709632635116577
1746521910206441200,6.789441162109375,0.22524452209472656,-0.2011345773935318,-0.10650131106376648
1746521910216431000,6.79943115234375,0.2082226574420929,-0.12474872916936874,0.030489828437566757
1746521910226421000,6.8094208984375,0.22899535298347473,-0.03601917251944542,0.18176086246967316
1746521910236411100,6.8194111328125,0.2807570695877075,0.06962630152702332,0.2460990995168686
1746521910246400000,6.82939990234375,0.33697229623794556,0.16827021539211273,0.20176810026168823
1746521910256390100,6.83939013671875,0.40009960532188416,0.23543059825897217,0.048353515565395355
1746521910266380000,6.849380126953125,0.45232975482940674,0.21965019404888153,-0.1453520655632019
1746521910276370200,6.8593701171875,0.4692522883415222,0.17247788608074188,-0.1494101881980896
1746521910286360000,6.869360107421875,0.41975125670433044,0.10239839553833008,0.1782052367925644
1746521910296349000,6.879348876953125,0.34737345576286316,-0.030218500643968582,0.537199854850769
1746521910306339000,6.889339111328125,0.3043290972709656,-0.15011119842529297,0.8317281603813171
1746521910316329200,6.8993291015625,0.2997170388698578,-0.21665214002132416,1.0201524496078491
1746521910326319000,6.909319091796875,0.3149053454399109,-0.21529817581176758,1.0796512365341187
1746521910336309200,6.919309326171875,0.33665376901626587,-0.1696593165397644,0.9782190918922424
1746521910346298000,6.929298095703125,0.36612221598625183,-0.1048017144203186,0.721886932849884
1746521910356288300,6.939288330078125,0.40883827209472656,-0.0358484722673893,0.38135144114494324
1746521910366278100,6.949278076171875,0.4617862403392792,0.045037247240543365,0.04664941877126694
1746521910376268000,6.95926806640625,0.5095271468162537,0.12820295989513397,-0.22069519758224487
1746521910386258200,6.969258056640625,0.5384796857833862,0.16911175847053528,-0.3990458548069
1746521910396247000,6.9792470703125,0.5449679493904114,0.13677352666854858,-0.5007013082504272
1746521910406237200,6.9892373046875,0.5270888805389404,0.052313558757305145,-0.5495657920837402
1746521910416227000,6.99922705078125,0.48856648802757263,-0.06083643063902855,-0.5790824294090271
1746521910426217000,7.009217041015625,0.46918055415153503,-0.1607317179441452,-0.5834026336669922
1746521910436207000,7.01920703125,0.45165908336639404,-0.19095300137996674,-0.539643406867981
1746521910446197000,7.029197021484375,0.41287991404533386,-0.1646721214056015,-0.46527090668678284
1746521910456186000,7.03918603515625,0.35996556282043457,-0.111530601978302,-0.36977607011795044
1746521910466176000,7.049176025390625,0.3239850401878357,-0.0377538800239563,-0.2674640417098999
1746521910476166000,7.059165771484375,0.2990749180316925,0.04084878787398338,-0.17687635123729706
1746521910486156300,7.06915625,0.2865960896015167,0.1109318658709526,-0.10441180318593979
1746521910496146200,7.079146240234375,0.27139928936958313,0.18963973224163055,-0.05718942731618881
1746521910506135300,7.08913525390625,0.2537941634654999,0.2569064199924469,-0.04200965538620949
1746521910516125200,7.099125244140625,0.2448563426733017,0.3010483384132385,-0.031332243233919144
1746521910526115000,7.109114990234375,0.23845021426677704,0.31666120886802673,-0.015620680525898933
1746521910536105200,7.119105224609375,0.21707195043563843,0.29575327038764954,-0.011454964987933636
1746521910546095000,7.12909521484375,0.1891244649887085,0.21504145860671997,-0.02502318099141121
1746521910556084200,7.139084228515625,0.15205805003643036,0.09561040252447128,-0.0492214635014534
1746521910566074000,7.14907421875,0.12253490090370178,-0.02990167960524559,-0.08502770215272903
1746521910576064000,7.15906396484375,0.10120537132024765,-0.1345023810863495,-0.12938503921031952
1746521910586052900,7.169052978515625,0.09731187671422958,-0.21677041053771973,-0.17497381567955017
1746521910596042800,7.179042724609375,0.10447338223457336,-0.2970530092716217,-0.19456163048744202
1746521910606032000,7.189031982421875,0.09644515812397003,-0.3249284327030182,-0.180480495095253
1746521910616021800,7.199021728515625,0.08645723760128021,-0.2879893183708191,-0.12526650726795197
1746521910626012000,7.209011962890625,0.0862150564789772,-0.2138417810201645,-0.023828227072954178
1746521910636002000,7.219001953125,0.08456096798181534,-0.14352846145629883,0.0850929319858551
1746521910645992000,7.228991943359375,0.06290920078754425,-0.10773336887359619,0.1479267179965973
1746521910655982000,7.238982177734375,0.03138190507888794,-0.10094203799962997,0.13962483406066895
1746521910665971000,7.248970947265625,0.0073475767858326435,-0.12545573711395264,0.08097165822982788
1746521910675961000,7.258961181640625,-0.019936775788664818,-0.1677643060684204,-0.004392501898109913
1746521910685951000,7.268950927734375,-0.05860208719968796,-0.19734904170036316,-0.10482482612133026
1746521910695940900,7.27894091796875,-0.09754389524459839,-0.18534405529499054,-0.20828622579574585
1746521910705931000,7.288930908203125,-0.14750686287879944,-0.13280515372753143,-0.3012624979019165
1746521910715920000,7.298919921875,-0.19915302097797394,-0.06690869480371475,-0.3444965183734894
1746521910725910000,7.308909912109375,-0.24113266170024872,0.046396151185035706,-0.3188907504081726
1746521910735900000,7.31889990234375,-0.28256452083587646,0.18304480612277985,-0.22828520834445953
1746521910745889800,7.328889892578125,-0.3221219480037689,0.28095337748527527,-0.11912062764167786
1746521910755880000,7.3388798828125,-0.3276804983615875,0.3166235089302063,-0.025502262637019157
1746521910765868800,7.348868896484375,-0.3156123757362366,0.3127272129058838,0.04602806270122528
1746521910775859000,7.35885888671875,-0.28707873821258545,0.29504460096359253,0.08577200770378113
1746521910785848800,7.368848876953125,-0.2301281988620758,0.2763815224170685,0.1288422793149948
1746521910795839000,7.3788388671875,-0.16747599840164185,0.2840985655784607,0.2042992115020752
1746521910805829000,7.3888291015625,-0.13081307709217072,0.3231843411922455,0.3207816183567047
1746521910815818000,7.39881787109375,-0.13368690013885498,0.3618987202644348,0.4890766143798828
1746521910825808100,7.40880810546875,-0.1740984469652176,0.3702217638492584,0.6712203025817871
1746521910835798000,7.418798095703125,-0.24346154928207397,0.3497055768966675,0.8247363567352295
1746521910845788000,7.428787841796875,-0.3213212788105011,0.31633323431015015,0.9222599864006042
1746521910855778000,7.438778076171875,-0.38001227378845215,0.2981531620025635,0.9356700778007507
1746521910865767000,7.448766845703125,-0.40726447105407715,0.27960899472236633,0.8259392976760864
1746521910875757000,7.458757080078125,-0.4218793511390686,0.2472720891237259,0.598381757736206
1746521910885747000,7.468746826171875,-0.4151759743690491,0.20382940769195557,0.32472339272499084
1746521910895736800,7.47873681640625,-0.3693496286869049,0.13594862818717957,0.08955720067024231
1746521910905727000,7.48872705078125,-0.30233970284461975,0.051130298525094986,-0.0830630213022232
1746521910915715800,7.4987158203125,-0.2494131326675415,-0.019959324970841408,-0.2045487016439438
1746521910925706000,7.5087060546875,-0.20595963299274445,-0.036402806639671326,-0.28813496232032776
1746521910935696000,7.51869580078125,-0.17775516211986542,-0.02126646600663662,-0.351060152053833
1746521910945685800,7.528685791015625,-0.14669109880924225,0.004855036269873381,-0.40621209144592285
1746521910955676200,7.53867626953125,-0.1089027002453804,0.03109143301844597,-0.4517308175563812
1746521910965664800,7.548664794921875,-0.06350448727607727,0.05640825256705284,-0.46863362193107605
1746521910975655000,7.558655029296875,-0.029009368270635605,0.07075603306293488,-0.45477986335754395
1746521910985645000,7.56864501953125,-0.013486084528267384,0.07691094279289246,-0.4188939929008484
1746521910995635000,7.578635009765625,-0.015240042470395565,0.06074902042746544,-0.37401333451271057
1746521911005625000,7.588625,-0.03181153163313866,0.031242014840245247,-0.3205523192882538
1746521911015614000,7.598614013671875,-0.059673525393009186,-0.004646476823836565,-0.2637691795825958
1746521911025604000,7.60860400390625,-0.08841968327760696,-0.053852371871471405,-0.1954399198293686
1746521911035594000,7.618593994140625,-0.11444489657878876,-0.07794678956270218,-0.11650409549474716
1746521911045584000,7.628583984375,-0.12705256044864655,-0.08099530637264252,-0.04287594556808472
1746521911055574000,7.638573974609375,-0.1318904608488083,-0.07195600867271423,0.0027152441907674074
1746521911065563000,7.64856298828125,-0.1191985085606575,-0.0509202815592289,0.0068269032053649426
1746521911075553000,7.658552978515625,-0.08958256244659424,-0.026893775910139084,-0.008139795623719692
1746521911085543000,7.66854296875,-0.045534126460552216,-0.0023750155232846737,-0.0375048853456974
1746521911095532800,7.67853271484375,0.009496101178228855,0.029116865247488022,-0.06926015019416809
1746521911105523000,7.68852294921875,0.0737583190202713,0.05595412105321884,-0.0841570794582367
1746521911115511800,7.69851171875,0.12628518044948578,0.0742122232913971,-0.07934927195310593
1746521911125502000,7.708501953125,0.1637367606163025,0.09304547309875488,-0.05009894818067551
1746521911135491800,7.718491943359375,0.17792288959026337,0.09630624949932098,-0.004147966392338276
1746521911145482000,7.72848193359375,0.1791170835494995,0.08269929140806198,0.03798509016633034
1746521911155472100,7.73847216796875,0.1689472645521164,0.07627654820680618,0.07232335954904556
1746521911165461000,7.7484609375,0.1425095498561859,0.036858055740594864,0.10301178693771362
1746521911175451100,7.758451171875,0.10788232088088989,-0.04272065684199333,0.128721684217453
1746521911185441000,7.76844091796875,0.07221583276987076,-0.1230960339307785,0.14609692990779877
1746521911195431000,7.778430908203125,0.047384247183799744,-0.1970514953136444,0.13017761707305908
1746521911205421000,7.788421142578125,0.04526086896657944,-0.2370057851076126,0.07243334501981735
1746521911215410000,7.798409912109375,0.03457599878311157,-0.2293020486831665,0.009072750806808472
1746521911225400000,7.808400146484375,0.033187538385391235,-0.19164112210273743,-0.04977217689156532
1746521911235390000,7.818389892578125,0.059783995151519775,-0.15084494650363922,-0.09905903041362762
1746521911245379800,7.8283798828125,0.09669714421033859,-0.11108905076980591,-0.15140795707702637
1746521911255370000,7.838369873046875,0.12779514491558075,-0.0734705701470375,-0.1938217282295227
1746521911265358800,7.84835888671875,0.14131741225719452,-0.03190317749977112,-0.19607053697109222
1746521911275349000,7.858348876953125,0.14436326920986176,0.009374222718179226,-0.12454203516244888
1746521911285339000,7.8683388671875,0.15432709455490112,0.06380627304315567,0.03363645821809769
1746521911295328800,7.878328857421875,0.17676103115081787,0.138229101896286,0.22667649388313293
1746521911305318000,7.88831787109375,0.18434838950634003,0.22083602845668793,0.36197859048843384
1746521911315307800,7.898307861328125,0.16334056854248047,0.24105820059776306,0.37094971537590027
1746521911325298200,7.908298095703125,0.13446761667728424,0.20720459520816803,0.27637290954589844
1746521911335288000,7.9182880859375,0.10069846361875534,0.15561330318450928,0.2063855677843094
1746521911345278000,7.92827783203125,0.03064906969666481,0.1511426568031311,0.30134618282318115
1746521911355267000,7.93826708984375,-0.06545215845108032,0.1340899020433426,0.470300555229187
1746521911365257000,7.948257080078125,-0.0873681977391243,0.08266853541135788,0.6308841109275818
1746521911375247000,7.9582470703125,-0.042471300810575485,0.03339259326457977,0.7426636219024658
1746521911385237000,7.968237060546875,0.03483134135603905,0.01639971137046814,0.7699421644210815
1746521911395227000,7.978226806640625,0.1031736433506012,0.011481384746730328,0.6929264664649963
1746521911405216000,7.988216064453125,0.15514962375164032,-0.00653857784345746,0.5307167768478394
1746521911415206000,7.998205810546875,0.1967729777097702,-0.044037751853466034,0.3101612627506256
1746521911425196000,8.008196044921876,0.23013673722743988,-0.10014421492815018,0.0657762736082077
1746521911435186000,8.01818603515625,0.27485784888267517,-0.11154840141534805,-0.13712118566036224
1746521911445175800,8.02817578125,0.30757346749305725,-0.08948251605033875,-0.2634495794773102
1746521911455165000,8.0381650390625,0.3183422088623047,-0.09070038050413132,-0.32117199897766113
1746521911465154800,8.04815478515625,0.314619779586792,-0.12071487307548523,-0.3149265646934509
1746521911475145000,8.05814501953125,0.29539042711257935,-0.14798244833946228,-0.2685350775718689
1746521911485135000,8.068135009765625,0.26729831099510193,-0.16780316829681396,-0.2291957288980484
1746521911495125000,8.078125,0.25200244784355164,-0.2010018676519394,-0.24730843305587769
1746521911505114000,8.088114013671875,0.24227549135684967,-0.23217028379440308,-0.3113052546977997
1746521911515104000,8.09810400390625,0.22823530435562134,-0.24053366482257843,-0.3803895115852356
1746521911525094100,8.10809423828125,0.21025362610816956,-0.22879241406917572,-0.419819712638855
1746521911535084000,8.118083984375,0.18217511475086212,-0.21064883470535278,-0.4360623359680176
1746521911545073200,8.1280732421875,0.15248925983905792,-0.20051634311676025,-0.441933274269104
1746521911555063000,8.13806298828125,0.13423915207386017,-0.19768860936164856,-0.43365350365638733
1746521911565053000,8.148052978515626,0.1315508484840393,-0.1707252860069275,-0.39674559235572815
1746521911575043000,8.15804296875,0.1329127848148346,-0.10949308425188065,-0.34645310044288635
1746521911585033500,8.168033447265625,0.1399742215871811,-0.03661481291055679,-0.28848060965538025
1746521911595022300,8.178022216796874,0.1487882137298584,0.014905372634530067,-0.23977535963058472
1746521911605012500,8.188012451171875,0.15169794857501984,0.04537490755319595,-0.20307141542434692
1746521911615002400,8.19800244140625,0.15441596508026123,0.05041973292827606,-0.19770781695842743
1746521911624992300,8.2079921875,0.15001820027828217,0.03843381628394127,-0.23361361026763916
1746521911634982400,8.217982421875,0.1471260040998459,0.016407344490289688,-0.3107573688030243
1746521911644971300,8.22797119140625,0.14555342495441437,-0.02852114662528038,-0.4032479226589203
1746521911654961400,8.23796142578125,0.13869205117225647,-0.09771193563938141,-0.48116829991340637
1746521911664951600,8.24795166015625,0.11886241286993027,-0.16727672517299652,-0.5197668075561523
1746521911674941400,8.25794140625,0.0911378413438797,-0.1936367005109787,-0.5113546848297119
1746521911684931600,8.267931640625,0.06426607072353363,-0.19249680638313293,-0.45564985275268555
1746521911694920400,8.27792041015625,0.04127872735261917,-0.17221976816654205,-0.3769502341747284
1746521911704910600,8.28791064453125,0.031249402090907097,-0.13814777135849,-0.29383644461631775
1746521911714900500,8.297900390625,0.014506639912724495,-0.09305379539728165,-0.2065548151731491
1746521911724890400,8.307890380859375,-0.030624814331531525,-0.07275227457284927,-0.09960044175386429
1746521911734879500,8.31787939453125,-0.06773915886878967,-0.08038302510976791,0.015386063605546951
1746521911744869400,8.327869384765625,-0.08184707164764404,-0.0860891118645668,0.10290420800447464
1746521911754859500,8.337859619140625,-0.08794810622930527,-0.08471465855836868,0.14036288857460022
1746521911764849400,8.347849365234374,-0.09768747538328171,-0.09043468534946442,0.11830794811248779
1746521911774839300,8.35783935546875,-0.10332192480564117,-0.09963111579418182,0.052628811448812485
1746521911784828400,8.367828369140625,-0.09428109228610992,-0.10483961552381516,-0.016338804736733437
1746521911794818300,8.377818359375,-0.08790148794651031,-0.07817871123552322,-0.058272406458854675
1746521911804808400,8.387808349609376,-0.09116955101490021,-0.016699114814400673,-0.024430571123957634
1746521911814798300,8.39779833984375,-0.11012007296085358,0.050196293741464615,0.08099199086427689
1746521911824788500,8.40778857421875,-0.16357597708702087,0.11269639432430267,0.2116301953792572
1746521911834777300,8.41777734375,-0.2566111087799072,0.13240617513656616,0.31859445571899414
1746521911844767500,8.427767578125,-0.37418630719184875,0.1068849116563797,0.33441197872161865
1746521911854757600,8.437757568359375,-0.4732268750667572,0.08382406830787659,0.26816877722740173
1746521911864747500,8.44774755859375,-0.5467816591262817,0.09466336667537689,0.1951441466808319
1746521911874736600,8.457736572265626,-0.5630913972854614,0.11207538098096848,0.15575306117534637
1746521911884726500,8.4677265625,-0.49430978298187256,0.14173628389835358,0.2453886717557907
1746521911894716400,8.47771630859375,-0.3791504502296448,0.1652272343635559,0.4382438659667969
1746521911904706600,8.48770654296875,-0.2783052921295166,0.16975374519824982,0.6248731017112732
1746521911914696400,8.497696533203126,-0.17751476168632507,0.15913145244121552,0.7821322083473206
1746521911924685600,8.507685546875,-0.10514815896749496,0.1137566864490509,0.8948675990104675
1746521911934675500,8.517675537109374,-0.07892454415559769,0.10425106436014175,0.8880014419555664
1746521911944665300,8.527665283203126,-0.0894627496600151,0.07092065364122391,0.7443870306015015
1746521911954655500,8.537655517578125,-0.11636733263731003,0.011976104229688644,0.4937087297439575
1746521911964644400,8.547644287109375,-0.13676996529102325,-0.043568532913923264,0.21840685606002808
1746521911974634500,8.557634521484376,-0.15571223199367523,-0.053272027522325516,-0.005108520854264498
1746521911984624400,8.567624267578125,-0.1919383406639099,-0.028603723272681236,-0.13380101323127747
1746521911994614300,8.5776142578125,-0.22974590957164764,0.009302912279963493,-0.1661512404680252
1746521912004604700,8.587604736328124,-0.25469550490379333,0.039308443665504456,-0.13571901619434357
1746521912014593300,8.59759326171875,-0.24583490192890167,0.0479554608464241,-0.10658908635377884
1746521912024583700,8.607583740234375,-0.22093331813812256,0.04067354276776314,-0.12746691703796387
1746521912034573600,8.617573486328125,-0.19009657204151154,0.04567842185497284,-0.1933780163526535
1746521912044563500,8.6275634765625,-0.16730234026908875,0.07796256989240646,-0.25490984320640564
1746521912054552600,8.637552490234375,-0.17201480269432068,0.12616072595119476,-0.27548062801361084
1746521912064542500,8.64754248046875,-0.17551232874393463,0.15322349965572357,-0.2733679413795471
1746521912074532600,8.65753271484375,-0.1585964560508728,0.14490991830825806,-0.2653222680091858
1746521912084522500,8.6675224609375,-0.14007340371608734,0.13015952706336975,-0.25693145394325256
1746521912094512400,8.677512451171875,-0.13213825225830078,0.1024400144815445,-0.24564257264137268
1746521912104501500,8.68750146484375,-0.12603595852851868,0.05005723983049393,-0.22921830415725708
1746521912114491400,8.697491455078126,-0.1235072910785675,-0.025518478825688362,-0.22223976254463196
1746521912124481500,8.7074814453125,-0.11422455310821533,-0.09933710098266602,-0.23858466744422913
1746521912134471400,8.717471435546875,-0.08001571893692017,-0.160081148147583,-0.25598976016044617
1746521912144461300,8.72746142578125,-0.051803406327962875,-0.19446144998073578,-0.2657136917114258
1746521912154450400,8.737450439453125,-0.04190470278263092,-0.19410672783851624,-0.2675206661224365
1746521912164440300,8.7474404296875,-0.02722303383052349,-0.18996399641036987,-0.26396429538726807
1746521912174430500,8.757430419921874,-0.0006513440166600049,-0.19399282336235046,-0.2490234524011612
1746521912184420400,8.76742041015625,0.034385133534669876,-0.16636088490486145,-0.2203318476676941
1746521912194409500,8.777409423828125,0.07513309270143509,-0.09196389466524124,-0.1933543086051941
1746521912204399400,8.7873994140625,0.10855663567781448,-0.008980088867247105,-0.16894352436065674
1746521912214389500,8.797389404296876,0.12632738053798676,0.05213040113449097,-0.15452730655670166
1746521912224379600,8.807379638671875,0.12685152888298035,0.10280019789934158,-0.1295042335987091
1746521912234368500,8.817368408203125,0.12077073007822037,0.1433071494102478,-0.06539395451545715
1746521912244358700,8.827358642578124,0.13297796249389648,0.1410726010799408,0.008208106271922588
1746521912254348500,8.8373486328125,0.14354778826236725,0.08235255628824234,0.07466436177492142
1746521912264338400,8.84733837890625,0.14102424681186676,0.001420049462467432,0.134927436709404
1746521912274328600,8.85732861328125,0.14197766780853271,-0.04895444214344025,0.19030573964118958
1746521912284317400,8.8673173828125,0.15965865552425385,-0.08097975701093674,0.23264041543006897
1746521912294307600,8.8773076171875,0.19010764360427856,-0.0967898741364479,0.2565188407897949
1746521912304297500,8.88729736328125,0.22201301157474518,-0.09222371131181717,0.24441373348236084
1746521912314287400,8.897287353515624,0.25074636936187744,-0.07402686774730682,0.2162071317434311
1746521912324276500,8.9072763671875,0.27209463715553284,-0.06395524740219116,0.18094442784786224
1746521912334266400,8.917266357421875,0.2681025564670563,-0.06662613153457642,0.13732026517391205
1746521912344256500,8.927256591796874,0.2353770136833191,-0.0975494384765625,0.08236777782440186
1746521912354246400,8.937246337890626,0.19869783520698547,-0.1144045889377594,0.10186851024627686
1746521912364236300,8.947236328125,0.1759897768497467,-0.11823303997516632,0.2127271145582199
1746521912374225400,8.957225341796875,0.1678527593612671,-0.11852545291185379,0.35668933391571045
1746521912384215300,8.96721533203125,0.1767595410346985,-0.09779521077871323,0.44075262546539307
1746521912394205700,8.977205810546875,0.13038617372512817,-0.002542461734265089,0.4720900356769562
1746521912404195600,8.987195556640625,0.06058618053793907,0.0692397952079773,0.44738683104515076
1746521912414184400,8.997184326171874,0.03324297443032265,0.08368264883756638,0.3482823371887207
1746521912424174600,9.007174560546876,0.05616337060928345,0.02894003316760063,0.19565148651599884
1746521912434164500,9.01716455078125,0.09400822222232819,-0.0018833923386409879,0.10337429493665695
1746521912444154600,9.027154541015625,0.10771722346544266,0.010942238382995129,0.19276544451713562
1746521912454143500,9.0371435546875,0.08225047588348389,0.003150894772261381,0.3896268606185913
1746521912464133400,9.04713330078125,0.06242823228240013,-0.034233834594488144,0.5915133357048035
1746521912474123500,9.05712353515625,0.055467262864112854,-0.07143047451972961,0.7378766536712646
1746521912484113400,9.067113525390624,0.04803324490785599,-0.13042762875556946,0.7808446288108826
1746521912494103600,9.077103515625,0.0486348532140255,-0.178841233253479,0.6949936747550964
1746521912504092400,9.087092529296875,0.05271833389997482,-0.1983015239238739,0.4786480665206909
1746521912514082300,9.097082275390624,0.05721774324774742,-0.197843998670578,0.18159136176109314
1746521912524072400,9.107072509765626,0.07418457418680191,-0.1650780439376831,-0.10702844709157944
1746521912534062300,9.117062255859375,0.08594749122858047,-0.08883866667747498,-0.3266233801841736
1746521912544051500,9.127051513671875,0.08403932303190231,-0.0017181626753881574,-0.4706316888332367
1746521912554041300,9.137041259765626,0.076300710439682,0.046459753066301346,-0.5539923906326294
1746521912564031500,9.147031494140625,0.06552839279174805,0.03156246617436409,-0.5891320109367371
1746521912574021600,9.157021728515625,0.0684882327914238,-0.02799753099679947,-0.5875988006591797
1746521912584011000,9.167010986328124,0.09138976037502289,-0.09826429188251495,-0.5639787316322327
1746521912594000100,9.177000244140626,0.12160146236419678,-0.15741656720638275,-0.5279461741447449
1746521912603990000,9.186989990234375,0.15172907710075378,-0.18193097412586212,-0.4896621108055115
1746521912613980200,9.196980224609375,0.17302663624286652,-0.14341206848621368,-0.44286370277404785
1746521912623970000,9.206969970703126,0.18288631737232208,-0.06086808070540428,-0.38289839029312134
1746521912633959200,9.216959228515625,0.17179185152053833,0.015131079591810703,-0.31645357608795166
1746521912643949000,9.226948974609375,0.14582829177379608,0.07651583105325699,-0.26258397102355957
1746521912653939000,9.23693896484375,0.11842090636491776,0.11726618558168411,-0.22750453650951385
1746521912663929000,9.24692919921875,0.09002877026796341,0.1369212120771408,-0.20921476185321808
1746521912673918000,9.25691796875,0.06625393033027649,0.12913386523723602,-0.20759715139865875
1746521912683908000,9.266908203125,0.06050049886107445,0.11258956789970398,-0.21627026796340942
1746521912693898000,9.27689794921875,0.06429443508386612,0.09742552787065506,-0.22969499230384827
1746521912703888000,9.286887939453125,0.07206664979457855,0.08250086009502411,-0.23478667438030243
1746521912713877000,9.296876953125,0.07830217480659485,0.051298461854457855,-0.22514817118644714
1746521912723867000,9.306866943359376,0.07956022769212723,0.0072965300641953945,-0.23074960708618164
1746521912733857000,9.31685693359375,0.08891590684652328,-0.0645425021648407,-0.25844863057136536
1746521912743847000,9.326846923828125,0.10528086870908737,-0.13493835926055908,-0.300584614276886
1746521912753837000,9.336837158203124,0.11338566243648529,-0.16049964725971222,-0.3401778042316437
1746521912763826000,9.346825927734375,0.10857658088207245,-0.15384435653686523,-0.3683340847492218
1746521912773816000,9.356816162109375,0.09300054609775543,-0.14825597405433655,-0.3854512870311737
1746521912783806200,9.36680615234375,0.06926846504211426,-0.14077404141426086,-0.39424505829811096
1746521912793796000,9.376796142578126,0.03827565908432007,-0.11863704025745392,-0.37553688883781433
1746521912803785000,9.386784912109375,-0.0003136963350698352,-0.12702882289886475,-0.3083599805831909
1746521912813775000,9.396775146484375,-0.05859510973095894,-0.1502947360277176,-0.17864058911800385
1746521912823765000,9.406764892578124,-0.1261272132396698,-0.13912846148014069,-0.023201990872621536
1746521912833755100,9.416755126953126,-0.19183431565761566,-0.09478577226400375,0.106087826192379
1746521912843744000,9.426743896484375,-0.2387963980436325,-0.04808403179049492,0.15973986685276031
1746521912853734100,9.436734130859374,-0.2628399431705475,-0.015169491060078144,0.1345788538455963
1746521912863724000,9.44672412109375,-0.25256532430648804,0.008774159476161003,0.05318064242601395
1746521912873714000,9.4567138671875,-0.21006101369857788,0.03047413006424904,-0.044612228870391846
1746521912883704000,9.4667041015625,-0.16175177693367004,0.07308775186538696,-0.09116347134113312
1746521912893693000,9.47669287109375,-0.13402800261974335,0.13864253461360931,-0.03593909740447998
1746521912903683000,9.48668310546875,-0.14831984043121338,0.19168587028980255,0.10111542046070099
1746521912913673000,9.4966728515625,-0.1781456470489502,0.198861762881279,0.2552165687084198
1746521912923662800,9.506662841796874,-0.2125883400440216,0.12035244703292847,0.3467850685119629
1746521912933652000,9.51665185546875,-0.2833724915981293,0.05504348874092102,0.3729170858860016
1746521912943641900,9.526641845703125,-0.3684271275997162,-0.007637025322765112,0.329091876745224
1746521912953632000,9.536632080078125,-0.41173306107521057,-0.0707869604229927,0.2460864633321762
1746521912963622100,9.5466220703125,-0.3728916645050049,-0.12651142477989197,0.1665477156639099
1746521912973611000,9.556611083984375,-0.2886281907558441,-0.14054015278816223,0.14615269005298615
1746521912983601200,9.56660107421875,-0.2074478417634964,-0.08363443613052368,0.23859044909477234
1746521912993591000,9.576591064453124,-0.10883045941591263,-0.004018176347017288,0.418876588344574
1746521913003581000,9.586580810546875,-0.01760784350335598,0.012539882212877274,0.5624875426292419
1746521913013570000,9.596570068359375,0.022868743166327477,0.00983597431331873,0.5985944271087646
1746521913023560000,9.606559814453124,0.017038675025105476,0.00510801374912262,0.5182791352272034
1746521913033550000,9.616550048828126,-0.021527359262108803,0.007286745589226484,0.36165326833724976
1746521913043540000,9.6265400390625,-0.06777343153953552,0.005229884758591652,0.20701150596141815
1746521913053529900,9.63652978515625,-0.12088698148727417,0.016878286376595497,0.09743707627058029
1746521913063519000,9.64651904296875,-0.18113566935062408,0.01971881277859211,0.05189808830618858
1746521913073508900,9.6565087890625,-0.24279770255088806,0.02440624311566353,0.06304740905761719
1746521913083499000,9.6664990234375,-0.29510602355003357,0.0326027050614357,0.09433822333812714
1746521913093489000,9.676489013671874,-0.33621299266815186,0.04601571336388588,0.11447198688983917
1746521913103478000,9.68647802734375,-0.35175392031669617,0.0552469901740551,0.10038920491933823
1746521913113468000,9.696468017578125,-0.343131959438324,0.0804934948682785,0.055244892835617065
1746521913123457800,9.706457763671875,-0.32677873969078064,0.10504328459501266,-0.020017661154270172
1746521913133448000,9.716447998046876,-0.30065926909446716,0.1187489777803421,-0.11382484436035156
1746521913143436800,9.726436767578125,-0.264196515083313,0.10474295914173126,-0.20429053902626038
1746521913153427000,9.736427001953125,-0.2148158997297287,0.07775581628084183,-0.27568188309669495
1746521913163417000,9.7464169921875,-0.1683187633752823,0.05580367147922516,-0.3149779140949249
1746521913173407000,9.756406982421876,-0.12695161998271942,0.04733002558350563,-0.3344578742980957
1746521913183396000,9.76639599609375,-0.09183964133262634,0.04137303680181503,-0.3453128933906555
1746521913193386000,9.776385986328124,-0.06150597706437111,0.05959252268075943,-0.3635174632072449
1746521913203376000,9.786376220703126,-0.04001301899552345,0.09444008022546768,-0.383444607257843
1746521913213366000,9.796365966796875,-0.019432375207543373,0.11663592606782913,-0.3964221775531769
1746521913223355100,9.806355224609375,0.00042999821016564965,0.11473298817873001,-0.3967425525188446
1746521913233345000,9.816344970703126,0.0023314952850341797,0.10077109932899475,-0.3675905466079712
1746521913243335000,9.8263349609375,0.013508416712284088,0.08438386023044586,-0.3397578299045563
1746521913253325000,9.836324951171875,0.0362001471221447,0.08872055262327194,-0.3313867151737213
1746521913263314000,9.84631396484375,0.04906878247857094,0.1099667027592659,-0.32371893525123596
1746521913273304000,9.856303955078126,0.058608490973711014,0.13664332032203674,-0.3056879937648773
1746521913283294000,9.8662939453125,0.06959865242242813,0.1490546315908432,-0.25508955121040344
1746521913293283800,9.876283935546875,0.09246322512626648,0.17446491122245789,-0.16296710073947906
1746521913303274000,9.88627392578125,0.12608319520950317,0.17738530039787292,-0.014835404232144356
1746521913313262800,9.896262939453125,0.1633746474981308,0.140508770942688,0.16789445281028748
1746521913323253000,9.9062529296875,0.19875513017177582,0.056307289749383926,0.3630319833755493
1746521913333243000,9.916242919921874,0.23865966498851776,-0.045157283544540405,0.5484724640846252
1746521913343233000,9.92623291015625,0.2913134694099426,-0.12256579846143723,0.6944738030433655
1746521913353222000,9.936221923828125,0.38711827993392944,-0.16863982379436493,0.8236485719680786
1746521913363212000,9.9462119140625,0.5542361736297607,-0.2149878740310669,0.8907575607299805
1746521913373202200,9.9562021484375,0.6223694682121277,-0.18623585999011993,0.912604033946991
1746521913383192000,9.966192138671875,0.5968965888023376,-0.1698770970106125,0.8319430351257324
1746521913393181200,9.97618115234375,0.5482701659202576,-0.22067876160144806,0.6281699538230896
1746521913403171000,9.986171142578126,0.5183756351470947,-0.30833491683006287,0.35515302419662476
1746521913413161000,9.996160888671875,0.48737862706184387,-0.3680104911327362,0.08067300915718079
1746521913423151000,10.006151123046875,0.4278830289840698,-0.4043707549571991,-0.12322447448968887
1746521913433140000,10.016139892578124,0.33975422382354736,-0.39972060918807983,-0.19548189640045166
1746521913443130000,10.026130126953126,0.2502898871898651,-0.31050994992256165,-0.10131731629371643
1746521913453120000,10.0361201171875,0.1572512984275818,-0.17586050927639008,0.12379515916109085
1746521913463110000,10.04610986328125,0.08911748975515366,-0.059024352580308914,0.39259201288223267
1746521913473099000,10.05609912109375,0.04753436520695686,0.034541551023721695,0.555663526058197
1746521913483089000,10.0660888671875,-0.004025512840598822,0.140415757894516,0.5942031145095825
1746521913493079000,10.0760791015625,-0.0315982848405838,0.2446894347667694,0.5425117015838623
1746521913503069000,10.08606884765625,-0.008528047241270542,0.3097239136695862,0.433165580034256
1746521913513058800,10.096058837890626,0.039798736572265625,0.30730628967285156,0.339919775724411
1746521913523048000,10.1060478515625,0.059080820530653,0.24576924741268158,0.3038003742694855
1746521913533037800,10.116037841796874,0.089458167552948,0.12413255870342255,0.2998650074005127
1746521913543028200,10.1260283203125,0.13963110744953156,-0.019397754222154617,0.3019489347934723
1746521913553018000,10.13601806640625,0.2055342197418213,-0.16257542371749878,0.2743324935436249
1746521913563007200,10.14600732421875,0.2964058220386505,-0.3002428114414215,0.1953391134738922
1746521913572997000,10.1559970703125,0.3930729925632477,-0.42576611042022705,0.07331361621618271
1746521913582986800,10.16598681640625,0.45511728525161743,-0.46761971712112427,-0.04118421673774719
1746521913592977000,10.175976806640625,0.46730178594589233,-0.44320759177207947,-0.11094225943088531
1746521913602965800,10.1859658203125,0.42892155051231384,-0.40674692392349243,-0.12122762948274612
1746521913612956000,10.195955810546875,0.36883506178855896,-0.3462396264076233,-0.07628172636032104
1746521913622945800,10.20594580078125,0.32465583086013794,-0.2691004276275635,-0.007362337317317724
1746521913632935700,10.215935791015625,0.29639914631843567,-0.1925542652606964,0.039022739976644516
1746521913642924800,10.2259248046875,0.2872805595397949,-0.12139854580163956,0.030887851491570473
1746521913652914700,10.235914794921875,0.29310646653175354,-0.05990402773022652,-0.03972533345222473
1746521913662905000,10.245905029296875,0.30193352699279785,-0.0010315744439139962,-0.1501825600862503
1746521913672895000,10.25589501953125,0.2999742329120636,0.034844402223825455,-0.25932905077934265
1746521913682884900,10.265884765625,0.29235753417015076,0.07865629345178604,-0.324156790971756
1746521913692874000,10.2758740234375,0.2741686701774597,0.14311623573303223,-0.3505639135837555
1746521913702864000,10.28586376953125,0.2712284326553345,0.2032424956560135,-0.34176933765411377
1746521913712854000,10.29585400390625,0.26995915174484253,0.23308348655700684,-0.3030584156513214
1746521913722844000,10.305843994140625,0.2632061839103699,0.2326536476612091,-0.24774296581745148
1746521913732833000,10.3158330078125,0.2580164968967438,0.21263840794563293,-0.18920935690402985
1746521913742823000,10.325822998046876,0.26077401638031006,0.1752711981534958,-0.16620789468288422
1746521913752812800,10.335812744140625,0.2716623544692993,0.126409649848938,-0.18889297544956207
1746521913762803000,10.345802978515625,0.2821650207042694,0.11012566089630127,-0.24234500527381897
1746521913772792800,10.355792724609374,0.2917076647281647,0.118690125644207,-0.30416762828826904
1746521913782782000,10.365781982421876,0.3018796145915985,0.16542556881904602,-0.3703423738479614
1746521913792771800,10.375771728515625,0.3227710425853729,0.21132300794124603,-0.4250764548778534
1746521913802761700,10.38576171875,0.3400958478450775,0.2330549955368042,-0.45192351937294006
1746521913812752000,10.395751953125,0.33403316140174866,0.2452019453048706,-0.4640345275402069
1746521913822740700,10.40574072265625,0.3143998980522156,0.26306092739105225,-0.46334052085876465
1746521913832731000,10.41573095703125,0.28633975982666016,0.25120478868484497,-0.4521022439002991
1746521913842721000,10.425720947265624,0.24668684601783752,0.21151745319366455,-0.4241997301578522
1746521913852711000,10.4357109375,0.19735684990882874,0.1621038317680359,-0.3933805525302887
1746521913862700000,10.445699951171875,0.14265069365501404,0.11157216131687164,-0.372977614402771
1746521913872690000,10.45568994140625,0.10124492645263672,0.07208467274904251,-0.3729512393474579
1746521913882680000,10.46568017578125,0.0755726546049118,0.03530116379261017,-0.38206934928894043
1746521913892670000,10.475669921875,0.05261088162660599,-0.0024057338014245033,-0.40105342864990234
1746521913902658800,10.485658935546875,0.03188706189393997,-0.00809822790324688,-0.4138946533203125
1746521913912649000,10.49564892578125,0.008001169189810753,0.023877814412117004,-0.3989439308643341
1746521913922638800,10.505638916015625,-0.020031796768307686,0.05983688309788704,-0.36212360858917236
1746521913932629000,10.51562890625,-0.03581289201974869,0.09817468374967575,-0.31874656677246094
1746521913942619000,10.525618896484374,-0.02689244970679283,0.14081136882305145,-0.2847222685813904
1746521913952607700,10.535607666015625,-0.024329423904418945,0.17510461807250977,-0.24808649718761444
1746521913962598000,10.545597900390625,-0.041490692645311356,0.21314285695552826,-0.1333085298538208
1746521913972587800,10.555587890625,-0.05926729366183281,0.23583538830280304,0.0819939374923706
1746521913982578000,10.565577880859376,-0.08132975548505783,0.2353169322013855,0.286727637052536
1746521913992566800,10.57556689453125,-0.1116061732172966,0.1617838591337204,0.39564505219459534
1746521914002557000,10.585556884765625,-0.17107835412025452,0.03735894337296486,0.4244476854801178
1746521914012546800,10.595546875,-0.271388441324234,-0.08456961810588837,0.4115643799304962
1746521914022537000,10.605536865234376,-0.34031590819358826,-0.20648592710494995,0.31928396224975586
1746521914032525800,10.61552587890625,-0.3292619287967682,-0.3381078541278839,0.1778234839439392
1746521914042516000,10.625515869140624,-0.2752877175807953,-0.36912035942077637,0.15165796875953674
1746521914052505900,10.635505859375,-0.2640518248081207,-0.32107239961624146,0.3434545695781708
1746521914062496000,10.64549609375,-0.2937559485435486,-0.2762320637702942,0.5763716697692871
1746521914072484900,10.65548486328125,-0.34542685747146606,-0.2321506291627884,0.7887390851974487
1746521914082475000,10.66547509765625,-0.40066415071487427,-0.20939864218235016,0.9544297456741333
1746521914092465000,10.67546484375,-0.43359440565109253,-0.19693557918071747,1.0514719486236572
1746521914102454800,10.685454833984375,-0.43693432211875916,-0.15181823074817657,1.0610750913619995
1746521914112445000,10.69544482421875,-0.4270193874835968,-0.07396604120731354,1.0053787231445312
1746521914122433800,10.705433837890626,-0.4100836515426636,-0.007466323208063841,0.8640977144241333
1746521914132424000,10.715423828125,-0.39622029662132263,0.05316613242030144,0.6600998640060425
1746521914142413800,10.725413818359375,-0.38496115803718567,0.12342958897352219,0.46139878034591675
1746521914152403700,10.73540380859375,-0.3599647283554077,0.18590174615383148,0.29595816135406494
1746521914162392800,10.745392822265625,-0.31669577956199646,0.22235460579395294,0.16785554587841034
1746521914172382700,10.7553828125,-0.276687890291214,0.23717457056045532,0.0396411269903183
1746521914182372900,10.765372802734374,-0.24793368577957153,0.22500690817832947,-0.143807515501976
1746521914192362800,10.77536279296875,-0.2246861606836319,0.20496821403503418,-0.32241031527519226
1746521914202351900,10.785351806640625,-0.19463206827640533,0.17006061971187592,-0.44325360655784607
1746521914212341800,10.795341796875,-0.1572870910167694,0.11906614899635315,-0.5009571313858032
1746521914222331600,10.80533154296875,-0.11880064755678177,0.07551160454750061,-0.5324598550796509
1746521914232322000,10.815322021484375,-0.070823535323143,0.044795237481594086,-0.5346383452415466
1746521914242310700,10.825310546875,-0.017421072348952293,0.047199051827192307,-0.5166628956794739
1746521914252301000,10.835301025390624,0.039850737899541855,0.0669863373041153,-0.47515562176704407
1746521914262291000,10.845291015625,0.09202476590871811,0.0811401978135109,-0.42636996507644653
1746521914272280800,10.85528076171875,0.12909145653247833,0.08016308397054672,-0.370112806558609
1746521914282271000,10.86527099609375,0.1510956883430481,0.07338938862085342,-0.3032538890838623
1746521914292259800,10.875259765625,0.15769846737384796,0.06256230175495148,-0.24121421575546265
1746521914302250000,10.88525,0.16393566131591797,0.057897135615348816,-0.20880462229251862
1746521914312239900,10.895239990234375,0.17752178013324738,0.06297711282968521,-0.21761062741279602
1746521914322229800,10.905229736328126,0.19524669647216797,0.06561248004436493,-0.2569982409477234
1746521914332219000,10.915218994140625,0.22232171893119812,0.0724666565656662,-0.306860089302063
1746521914342208800,10.925208740234375,0.24511370062828064,0.09182296693325043,-0.35649552941322327
1746521914352199000,10.935198974609374,0.26378193497657776,0.12917940318584442,-0.40229418873786926
1746521914362188800,10.945188720703126,0.28021180629730225,0.17359966039657593,-0.43466997146606445
1746521914372178000,10.955177978515625,0.28552666306495667,0.1909395009279251,-0.45026037096977234
1746521914382167800,10.965167724609374,0.2918550968170166,0.18559040129184723,-0.42768344283103943
1746521914392157700,10.97515771484375,0.311101496219635,0.18077273666858673,-0.3632655739784241
1746521914402147800,10.98514794921875,0.3228484094142914,0.20325742661952972,-0.2586677670478821
1746521914412136700,10.99513671875,0.31590741872787476,0.2174624651670456,-0.11998952925205231
1746521914422126800,11.005126953125,0.3024342358112335,0.20864325761795044,0.03455958142876625
1746521914432117000,11.015116943359375,0.29209664463996887,0.17168337106704712,0.1802520751953125
1746521914442107000,11.02510693359375,0.27748212218284607,0.1156434640288353,0.2880328595638275
1746521914452096000,11.035095947265624,0.2641516625881195,0.05378275737166405,0.3457065224647522
1746521914462086000,11.0450859375,0.2601451277732849,0.0003210578579455614,0.3470709025859833
1746521914472076000,11.055075927734375,0.25469765067100525,-0.025765137746930122,0.28925153613090515
1746521914482066000,11.06506591796875,0.2521934509277344,-0.033427175134420395,0.18183159828186035
1746521914492055800,11.075055908203124,0.2537290155887604,-0.04126405715942383,0.052105020731687546
1746521914502045000,11.085044921875,0.2573091685771942,-0.06064097583293915,-0.08362162858247757
1746521914512034800,11.095034912109375,0.2522379755973816,-0.08950112015008926,-0.20201486349105835
1746521914522025000,11.10502490234375,0.2514652609825134,-0.09748311340808868,-0.25657156109809875
1746521914532014800,11.115014892578126,0.2745567262172699,-0.09391527622938156,-0.2052769809961319
1746521914542004000,11.12500390625,0.3164236843585968,-0.08108539134263992,-0.12286518514156342
1746521914551993900,11.134993896484374,0.324069619178772,0.009213080629706383,-0.009789766743779182
1746521914561983700,11.144983642578126,0.2891327738761902,0.1164870634675026,0.09401199221611023
1746521914571974000,11.154973876953125,0.2377569079399109,0.1509060263633728,0.09182526916265488
1746521914581962800,11.164962646484375,0.16574043035507202,0.1320822834968567,-0.03137495368719101
1746521914591953000,11.174952880859376,0.08525543659925461,0.1169203668832779,-0.17259865999221802
1746521914601942800,11.18494287109375,0.0015413353685289621,0.1195216178894043,-0.17615506052970886
1746521914611932700,11.1949326171875,-0.09561024606227875,0.10304784029722214,-0.010423080064356327
1746521914621921800,11.204921875,-0.1461469531059265,0.08203769475221634,0.26466014981269836
1746521914631911700,11.21491162109375,-0.12764276564121246,0.07379361242055893,0.558501660823822
1746521914641901800,11.22490185546875,-0.07302843779325485,0.06865798681974411,0.7575822472572327
1746521914651892000,11.23489208984375,0.005833357106894255,0.07900330424308777,0.8318392038345337
1746521914661880800,11.244880859375,0.07618328928947449,0.09248161315917969,0.781991183757782
1746521914671871000,11.25487109375,0.11627425253391266,0.08249928057193756,0.6314914226531982
1746521914681860900,11.26486083984375,0.15200398862361908,0.05034104362130165,0.3963391184806824
1746521914691851000,11.27485107421875,0.20388875901699066,0.01549411378800869,0.14736896753311157
1746521914701840000,11.28483984375,0.26181501150131226,0.013057702220976353,-0.05853118374943733
1746521914711830000,11.294830078125,0.298214316368103,0.029187403619289398,-0.1983519345521927
1746521914721820000,11.30481982421875,0.3004723787307739,0.04689900577068329,-0.2801056504249573
1746521914731809800,11.314809814453126,0.27542322874069214,0.05113369598984718,-0.317820280790329
1746521914741799000,11.324798828125,0.2482001781463623,0.026413943618535995,-0.32819458842277527
1746521914751788800,11.334788818359375,0.21303527057170868,-0.02664021961390972,-0.3013078570365906
1746521914761779000,11.344779052734374,0.18642331659793854,-0.07540363818407059,-0.2547350525856018
1746521914771768800,11.354768798828125,0.16276060044765472,-0.10903563350439072,-0.22320911288261414
1746521914781758000,11.364758056640625,0.1159985139966011,-0.12481609731912613,-0.20740696787834167
1746521914791747800,11.374747802734374,0.06983421742916107,-0.12142402678728104,-0.1885981261730194
1746521914801737700,11.38473779296875,0.04083219915628433,-0.1256692111492157,-0.16447894275188446
1746521914811728000,11.394727783203125,0.032545506954193115,-0.12293361872434616,-0.13761404156684875
1746521914821716700,11.404716796875,0.029620418325066566,-0.08707722276449203,-0.10651283711194992
1746521914831707000,11.414706787109376,0.0574541799724102,-0.06716743111610413,-0.10464516282081604
1746521914841696800,11.42469677734375,0.10676911473274231,-0.03790343552827835,-0.1284993439912796
1746521914851686700,11.434686767578125,0.14385922253131866,-0.02442117966711521,-0.1519133299589157
1746521914861675800,11.44467578125,0.15263037383556366,-0.024367712438106537,-0.17493636906147003
1746521914871665700,11.454665771484375,0.14664413034915924,-0.04188225790858269,-0.18777254223823547
1746521914881655800,11.46465576171875,0.12322724610567093,-0.06994669139385223,-0.18743297457695007
1746521914891646000,11.47464599609375,0.08988234400749207,-0.11030663549900055,-0.19388288259506226
1746521914901634800,11.484634765625,0.039593830704689026,-0.17021121084690094,-0.21930064260959625
1746521914911625000,11.494625,-0.01874963752925396,-0.2470918744802475,-0.25044578313827515
1746521914921614800,11.50461474609375,-0.07450633496046066,-0.31358960270881653,-0.2753585875034332
1746521914931604700,11.514604736328126,-0.11846446990966797,-0.35504090785980225,-0.28031739592552185
1746521914941593900,11.52459375,-0.1498641073703766,-0.37131258845329285,-0.2529488801956177
1746521914951583700,11.534583740234375,-0.18301033973693848,-0.34618112444877625,-0.19031691551208496
1746521914961574000,11.544573974609374,-0.2034757435321808,-0.28992921113967896,-0.10993288457393646
1746521914971563800,11.554563720703126,-0.22002676129341125,-0.21194864809513092,-0.029967743903398514
1746521914981553000,11.564552978515625,-0.22534500062465668,-0.12360093742609024,0.032526273280382156
1746521914991542800,11.574542724609374,-0.2160617560148239,-0.07336971908807755,0.06477129459381104
1746521915001532700,11.58453271484375,-0.201211079955101,-0.04145529121160507,0.06277819722890854
1746521915011522800,11.594522705078125,-0.18004454672336578,-0.03049185499548912,0.02896697074174881
1746521915021511700,11.60451171875,-0.16523699462413788,-0.02716323919594288,-0.043370623141527176
1746521915031501800,11.614501708984376,-0.14537274837493896,-0.04234325513243675,-0.1431954801082611
1746521915041491700,11.62449169921875,-0.11845369637012482,-0.05835765227675438,-0.23889219760894775
1746521915051481600,11.634481689453125,-0.11632076650857925,-0.03673970699310303,-0.24639219045639038
1746521915061470700,11.644470703125,-0.1380939483642578,0.029119588434696198,-0.08567865937948227
1746521915071460600,11.654460693359376,-0.18258844316005707,0.05933501198887825,0.15546604990959167
1746521915081451000,11.664450927734375,-0.2418912798166275,0.07086417078971863,0.4202069044113159
1746521915091441000,11.67444091796875,-0.29837241768836975,0.061887726187705994,0.6339242458343506
1746521915101430000,11.684429931640626,-0.3538062870502472,-0.001640309696085751,0.7087068557739258
1746521915111420000,11.694419921875,-0.4269060492515564,-0.046121224761009216,0.6926133632659912
1746521915121409800,11.704409912109375,-0.49544286727905273,-0.08929318934679031,0.6677131056785583
1746521915131400000,11.71439990234375,-0.4929352402687073,-0.17298568785190582,0.6303486824035645
1746521915141388800,11.724388916015625,-0.4072343409061432,-0.2417135089635849,0.5857242345809937
1746521915151379000,11.73437890625,-0.3209577798843384,-0.2654513418674469,0.5288822650909424
1746521915161368800,11.744368896484374,-0.28939810395240784,-0.23241396248340607,0.47601741552352905
1746521915171358700,11.754358642578126,-0.24423542618751526,-0.14860855042934418,0.429733008146286
1746521915181347800,11.764347900390625,-0.19498497247695923,-0.08180219680070877,0.38202914595603943
1746521915191337700,11.774337646484375,-0.1530204862356186,-0.07344599813222885,0.276263564825058
1746521915201327900,11.784327880859376,-0.1393069177865982,-0.052100684493780136,0.10868790000677109
1746521915211317800,11.79431787109375,-0.15139687061309814,-0.005600828677415848,-0.04135805740952492
1746521915221307000,11.804306884765625,-0.16404858231544495,0.045516934245824814,-0.0977180153131485
1746521915231296800,11.814296875,-0.17360852658748627,0.08866307884454727,-0.07594373822212219
1746521915241286700,11.82428662109375,-0.18121778964996338,0.12100967019796371,-0.006420586723834276
1746521915251276800,11.83427685546875,-0.16954435408115387,0.13713324069976807,0.05699140951037407
1746521915261265700,11.844265625,-0.15178535878658295,0.12383896857500076,0.06708186864852905
1746521915271255800,11.854255859375,-0.1370500922203064,0.08852092921733856,0.026673726737499237
1746521915281246000,11.864245849609375,-0.11525008082389832,0.06901603192090988,-0.04129228740930557
1746521915291235800,11.87423583984375,-0.09455971419811249,0.0685662254691124,-0.09656859189271927
1746521915301225000,11.884224853515626,-0.07111374288797379,0.06879031658172607,-0.12086966633796692
1746521915311214800,11.89421484375,-0.04225519672036171,0.06658867746591568,-0.11936444789171219
1746521915321205000,11.904205078125,-0.009428723715245724,0.07152795791625977,-0.10372741520404816
1746521915331195000,11.91419482421875,0.026356970891356468,0.07413998246192932,-0.08362001180648804
1746521915341184000,11.92418408203125,0.06639405339956284,0.07017143070697784,-0.06795238703489304
1746521915351174000,11.934173828125,0.1107010617852211,0.07033494859933853,-0.05894157662987709
1746521915361163800,11.944163818359375,0.15651707351207733,0.06533553451299667,-0.06804107874631882
1746521915371154000,11.95415380859375,0.20437327027320862,0.04655918478965759,-0.10422065109014511
1746521915381142800,11.964142822265625,0.24931062757968903,0.03436613082885742,-0.1595241129398346
1746521915391133000,11.9741328125,0.28568220138549805,0.0021533318795263767,-0.21989716589450836
1746521915401122800,11.984122802734374,0.30229225754737854,-0.04889466613531113,-0.2758789658546448
1746521915411112000,11.99411181640625,0.3025340735912323,-0.12233345955610275,-0.3180261552333832
1746521915421101800,12.004101806640625,0.28407981991767883,-0.2093563973903656,-0.34376317262649536
1746521915431091700,12.014091796875,0.25834327936172485,-0.27801749110221863,-0.3454391062259674
1746521915441081900,12.024081787109376,0.2396148443222046,-0.2980104088783264,-0.32352715730667114
1746521915451070700,12.03407080078125,0.23407413065433502,-0.25933200120925903,-0.3033888638019562
1746521915461060900,12.044060791015625,0.2530515193939209,-0.1837959587574005,-0.30713915824890137
1746521915471050800,12.05405078125,0.2841937243938446,-0.04612092301249504,-0.3313129246234894
1746521915481040600,12.06404052734375,0.32303673028945923,0.08585575222969055,-0.3859705626964569
1746521915491029800,12.07402978515625,0.3626038432121277,0.20447880029678345,-0.43120276927948
1746521915501019600,12.08401953125,0.3731244206428528,0.264253705739975,-0.431800901889801
1746521915511010000,12.094010009765626,0.34174013137817383,0.2787857949733734,-0.3707181215286255
1746521915521000000,12.104,0.31701862812042236,0.22060878574848175,-0.30206605792045593
1746521915530989000,12.113989013671874,0.2931268811225891,0.149701327085495,-0.20189952850341797
1746521915540979000,12.12397900390625,0.25199005007743835,0.0770631954073906,-0.06977453082799911
1746521915550968800,12.13396875,0.21290895342826843,0.060697272419929504,0.08140646666288376
1746521915560959000,12.143958984375,0.1979031264781952,0.06794774532318115,0.21050001680850983
1746521915570947800,12.15394775390625,0.1882619559764862,0.0747009888291359,0.30952006578445435
1746521915580938000,12.16393798828125,0.1657264232635498,0.060874707996845245,0.3637358844280243
1746521915590928100,12.17392822265625,0.14399662613868713,0.03918299451470375,0.3667322099208832
1746521915600918000,12.18391796875,0.12595608830451965,0.007384750060737133,0.313058078289032
1746521915610907100,12.1939072265625,0.13039717078208923,-0.016023103147745132,0.24369019269943237
1746521915620897000,12.20389697265625,0.14013049006462097,0.005344236269593239,0.257240355014801
1746521915630887000,12.213886962890625,0.15784397721290588,0.05398420989513397,0.3749273419380188
1746521915640877000,12.223876953125,0.2040673792362213,0.07898043841123581,0.5155168771743774
1746521915650866000,12.233865966796875,0.2675185203552246,0.09807183593511581,0.6040683388710022
1746521915660856000,12.24385595703125,0.28545424342155457,0.0947905108332634,0.6217301487922668
1746521915670846000,12.253845947265624,0.26345890760421753,0.0872708112001419,0.5755853056907654
1746521915680835000,12.2638349609375,0.2285212129354477,0.09652309864759445,0.5283181667327881
