time,seconds_elapsed,z,y,x
1746522223210641000,0.031640869140625,3.4673329962164163,-0.6678393475815654,0.20289514669477937
1746522223220628000,0.0416279296875,3.780186062711477,0.05607932235747575,1.3963810011461377
1746522223230615800,0.05161572265625,4.3568005402743815,0.4005164446398616,1.385070794841647
1746522223240603000,0.061602783203125,4.373555860242248,0.1898126700207591,1.132517298747599
1746522223250591000,0.071591064453125,3.582728723156452,-1.0934861418247221,0.03540186050981283
1746522223260578800,0.081578857421875,2.4823855550438165,-2.651906547664106,-1.2355839977294205
1746522223270566000,0.09156591796875,2.0416987203180788,-1.944046739861369,-0.34936201146394014
1746522223280554000,0.101553955078125,1.8138596865028143,-1.428434428010881,0.16316110219955443
1746522223290541800,0.111541748046875,1.6113479861676692,-1.275917469422519,-0.03685001349151134
1746522223300529000,0.12152880859375,2.063056565645337,-0.765129801249504,-0.09848916193321347
1746522223310517000,0.13151708984375,2.4972072766005993,-0.5782847488626838,-0.07932882665023207
1746522223320504000,0.141504150390625,2.7441578381210565,-0.9698816817268728,0.03283887815400958
1746522223330492000,0.151491943359375,2.6008973681777716,-1.40246616627872,0.44116073584780097
1746522223340479700,0.161479736328125,1.2271008315443992,-1.9640007097400725,1.011568029333651
1746522223350467000,0.171467041015625,-6.37141894596517,-4.420585030181706,-1.0025757445827126
1746522223360455000,0.181454833984375,-7.8169205363720655,-4.941268653947114,-2.369341213535517
1746522223370442000,0.19144189453125,-3.5591128697693346,-2.954856352043152,-0.8359563186228275
1746522223380430000,0.20143017578125,-2.8588258353084326,-1.873094258020818,0.07622238506749272
1746522223390418200,0.211418212890625,-5.084290638959407,-1.958412826605141,-0.6611207068510353
1746522223400405000,0.221405029296875,-8.30091635147035,-2.3132643753960727,-1.2665111970432101
1746522223410393000,0.23139306640625,-10.774938567316532,-2.205876890605688,-1.2209404092185199
1746522223420380000,0.2413798828125,-11.824587905502318,-1.929530284861475,-0.3901090323939919
1746522223430368000,0.251367919921875,-12.278521759814023,-0.9949235493291169,2.8394626709297297
1746522223440356000,0.261356201171875,-11.703112566387652,-0.18331673213019967,6.216501355975866
1746522223450343000,0.271343017578125,-9.975675025796889,-0.13999080062285066,8.07752728280127
1746522223460331000,0.2813310546875,-8.500488491222262,0.03813420808315277,9.304509456402062
1746522223470317800,0.29131787109375,-6.295679522109031,0.25875556560456753,8.403534429901837
1746522223480306000,0.301305908203125,-4.876172789180279,-0.04977715347334742,7.277181791263819
1746522223490294000,0.3112939453125,-4.463440713828802,0.13118205574527383,5.5406338925004
1746522223500280800,0.32128076171875,-2.680157367375493,0.0462665150038898,5.242546433460712
1746522223510269000,0.33126904296875,-1.2231862884491682,0.38001536227241156,5.0963791361600155
1746522223520256000,0.341256103515625,-0.10087094250321388,0.6687906569570302,4.153907147145271
1746522223530243800,0.351243896484375,0.7839052288681269,-0.16420169729366899,2.175045552881807
1746522223540232000,0.36123193359375,1.2820043881207703,-1.1792308268666267,-0.3943427975062281
1746522223550219000,0.371218994140625,1.301466628959775,-1.7173730965636669,-1.9369173263728618
1746522223560206800,0.381206787109375,1.0064444027096033,-2.150215063007921,-3.0293267788767815
1746522223570194000,0.39119384765625,0.5895569612443446,-2.180903631260246,-4.339023768304288
1746522223580182000,0.40118212890625,0.15965689347088335,-2.065073020034283,-4.77163572538495
1746522223590169900,0.411169921875,-1.016978656205535,-1.3801131724342703,-3.4153441580429673
1746522223600157000,0.421156982421875,-0.4824702129662037,-0.32009587723016736,-1.8207924083754419
1746522223610144800,0.431144775390625,0.15791443371772765,0.2538930741347372,-0.7821287937801331
1746522223620132900,0.4411328125,-0.31726503771841524,0.7205063772775232,0.6428234181381761
1746522223630120000,0.451119873046875,-0.7655079869121313,1.3630813736125826,-0.25394721547476945
1746522223640107800,0.461107666015625,-1.224326106134057,0.6041074646443129,-2.7759260183036325
1746522223650095000,0.47109521484375,-0.40714638417363164,-0.5130253640972078,-4.444711463439464
1746522223660083000,0.4810830078125,1.4595540811568497,-0.6086408702902496,-5.092681450685858
1746522223670070800,0.49107080078125,3.2503830206841227,-0.09126914755180478,-4.819225159555673
1746522223680058000,0.50105810546875,4.610482455876469,0.12639438307732342,-4.268205141976475
1746522223690046000,0.5110458984375,5.763488708162307,-0.10473580123782157,-3.7415830680727957
1746522223700033000,0.521032958984375,6.645923869365453,-0.1858100102506578,-3.4648467323586343
1746522223710021000,0.531021240234375,7.4460992650330065,0.1027452119424939,-3.2590076411664484
1746522223720009000,0.541009033203125,7.946216193848848,0.7610553914174437,-3.084702921400964
1746522223729996000,0.55099609375,8.041331933826207,1.2180790284380316,-3.6528915159240363
1746522223739984100,0.560984130859375,7.854225307893753,1.3085574640035629,-4.985054604181647
1746522223749971000,0.570970947265625,6.929278454175591,1.576873761896789,-5.990670739373565
1746522223759959000,0.580958984375,5.975032440736889,2.200924821156263,-5.961969545546173
1746522223769947100,0.590947021484375,5.809265539953112,1.7710224152952432,-6.261205590099096
1746522223779934000,0.600933837890625,4.3136160630643365,0.8836889606565237,-6.182192259138822
1746522223789922000,0.610922119140625,2.211867655453086,0.19225158760547637,-6.427995404189825
1746522223799908900,0.620908935546875,-0.15640578272044658,-0.22821020521521568,-5.6977054456532
1746522223809897000,0.63089697265625,-0.7170487841695546,-0.38126755429059267,-3.977743647770583
1746522223819885000,0.640885009765625,0.23365268853008744,-0.9274068140909075,-3.090721451038122
1746522223829871900,0.650871826171875,0.7369821496516465,-2.9811677281245585,-4.078018962468207
1746522223839860000,0.66085986328125,-1.4694851080626248,-5.376726940369606,-4.336389620408416
1746522223849846800,0.6708466796875,-3.571988133433461,-4.103009903600812,-2.2462258521288634
1746522223859835000,0.6808349609375,-3.2796237282156944,-1.3799997751876711,-0.7096494676984846
1746522223869818400,0.690818359375,-3.810042856314778,0.13652180933803318,-0.08430248687695711
1746522223879805400,0.700805419921875,-4.763349543076753,0.7422396317884326,-0.9476615204818546
1746522223889793300,0.710793212890625,-5.769522143107652,0.9284734204091131,-2.179868589124083
1746522223899780400,0.7207802734375,-6.466915209692716,0.8723103652909397,-2.8084178365856407
1746522223909768400,0.7307685546875,-7.0403311834752555,0.7329838737957179,-3.044356005704403
1746522223919756300,0.74075634765625,-7.185077508062124,0.3120766752950847,-2.229578960971534
1746522223929743400,0.750743408203125,-6.654659549006819,-0.2796134985856712,-0.6182982678864151
1746522223939731500,0.7607314453125,-6.06307897298038,-0.4975038237079978,0.8096653277423232
1746522223949719600,0.770719482421875,-5.281843840104341,-0.4573289035774767,1.5677788935542105
1746522223959706400,0.780706298828125,-4.22960974612236,-0.4530515185192227,1.5762110602043569
1746522223969694500,0.790694580078125,-3.1139450902372596,-0.44650823435559867,1.3639976116746664
1746522223979681300,0.800681396484375,-2.01288179115653,-0.3169457426361739,1.3812370618976653
1746522223989669400,0.81066943359375,-0.874719472259283,-0.0353179816186428,1.5792700093835592
1746522223999657500,0.820657470703125,0.24133798233568668,0.4467759453810751,1.9988006588339804
1746522224009644300,0.830644287109375,1.3480185367763042,1.078501338660717,2.5244109253466127
1746522224019632400,0.84063232421875,2.346311781734228,1.410565301582217,3.1445220148086546
1746522224029619200,0.850619140625,3.0501065320551395,1.5980074430793523,3.461154307581484
1746522224039607300,0.860607177734375,3.6063328861057755,2.1406027466624975,3.5108307771593332
1746522224049595400,0.870595458984375,4.118221501258016,3.081474607004225,3.3109573163732886
1746522224059582200,0.880582275390625,4.387721163716912,3.9196991628199815,2.7255580593302846
1746522224069570300,0.8905703125,4.515692294591665,4.577290380370616,2.634212193280458
1746522224079557400,0.900557373046875,4.628730644750595,5.3686628763794895,2.8292043117657304
1746522224089545200,0.910545166015625,5.101583719065785,6.062852763009071,2.9219579987868665
1746522224099533300,0.920533203125,5.884138117846846,6.325234117895365,3.0664959413200616
1746522224109520400,0.930520263671875,6.458903752672672,6.326894160062074,3.412296753171086
1746522224119508200,0.94050830078125,6.755241153174638,6.280718684342503,4.070204197064042
1746522224129495300,0.950495361328125,7.186393851357698,6.238042156654596,4.860474284788966
1746522224139483400,0.9604833984375,7.205123101747035,6.015052900958061,5.519891548722982
1746522224149471200,0.97047119140625,5.998629004901647,5.793083635959029,5.72213729159832
1746522224159458300,0.980458251953125,3.654077803099155,5.802021560174226,4.860943655866384
1746522224169446100,0.990446044921875,1.7127303853243587,5.793110523965955,3.3266037983164187
1746522224179433500,1.00043359375,1.5240432122021912,4.895298345410824,2.41559340775311
1746522224189421300,1.01042138671875,2.490702132490277,2.6862755579948425,2.202683939783275
1746522224199409200,1.0204091796875,3.5430794343352314,-0.7709177370011806,2.864309527416527
1746522224209396500,1.030396484375,5.961895311266184,-4.780345101541281,3.0512627163529396
1746522224219384300,1.04038427734375,9.69506710934639,-7.133239768797159,2.878045207302272
1746522224229371400,1.050371337890625,11.928602406728267,-6.451376279777288,3.0176424785628915
1746522224239359500,1.060359375,9.372305227777362,-6.388721378421783,2.783612773413956
1746522224249347300,1.070347412109375,3.0123195299744605,-6.804876998481154,2.0736232601061464
1746522224259334400,1.08033447265625,-3.061162179076671,-4.795180851623416,2.659345757754147
1746522224269322500,1.090322509765625,-8.395741584068537,-2.7725264389932156,3.2858748975649474
1746522224279309300,1.100309326171875,-12.738480865764616,-2.1090183986142277,3.245117355240881
1746522224289297400,1.11029736328125,-15.791034206449984,-2.798586470662057,3.3710961432546376
1746522224299285500,1.120285400390625,-17.377501433861255,-3.5994124391928315,3.940908539587259
1746522224309272300,1.130272216796875,-17.48388558682799,-4.207916969752311,5.43981263435781
1746522224319260400,1.140260498046875,-15.373961471545694,-4.436099410177767,5.760448025292158
1746522224329247200,1.150247314453125,-11.717037046843766,-4.797211480668187,4.531548327632248
1746522224339235300,1.1602353515625,-7.477486921465396,-5.166572616326809,1.9486586175709961
1746522224349223400,1.170223388671875,-3.19344941958487,-4.320134066656232,-0.8555383864492178
1746522224359210200,1.180210205078125,0.8246955044180154,-3.1590748562961815,-3.576322947767377
1746522224369198300,1.1901982421875,3.330813232704997,-2.566308285355568,-4.995449741467834
1746522224379185400,1.200185302734375,4.798968553468585,-1.7533634244859218,-5.203241428032517
1746522224389173200,1.21017333984375,7.081341823777556,-2.5515590445131062,-7.781696662777662
1746522224399161300,1.220161376953125,6.16147680336833,-2.148765010330081,-8.950181054702401
1746522224409148200,1.230148193359375,5.02425205758214,-0.3991735055983066,-9.515645192697644
1746522224419136300,1.24013623046875,4.379717305481433,1.078033136627078,-9.638165656951069
1746522224429123300,1.250123291015625,3.0711995889663695,2.065415695992112,-9.631717211464046
1746522224439111200,1.260111083984375,1.667913922998309,2.832416259549558,-9.229203747788072
1746522224449099300,1.270099365234375,0.21628069796860216,3.5927854222685096,-9.08666516237855
1746522224459086300,1.28008642578125,-1.857669017612934,3.705494394342601,-9.28052944587767
1746522224469074200,1.29007421875,-2.857905213332176,3.6288264574646947,-8.684154036790131
1746522224479061200,1.300061279296875,-2.965605125072598,4.076670178207755,-7.97482211060822
1746522224489049300,1.31004931640625,-2.3277707473933695,4.163673338878154,-7.754973491024971
1746522224499037200,1.320037109375,-1.004941596931219,3.7043203821271655,-7.397744107186794
1746522224509024300,1.330024169921875,0.4367945034623146,3.25255101237297,-7.39185797175765
1746522224519012400,1.340012451171875,1.802642126917839,3.2701030356764793,-7.81732268743217
1746522224529000200,1.350000244140625,3.0962334924578663,2.876743769314885,-7.839765989908575
1746522224538987500,1.359987548828125,3.8946646748065947,1.8586796559602021,-7.743887448865175
1746522224548975000,1.36997509765625,4.106199639552831,0.9188111274421215,-7.640206709638237
1746522224558962400,1.37996240234375,3.3982822563439607,0.36338381481468673,-6.602866233405471
1746522224568950500,1.389950439453125,1.5215046336352824,-2.09897075959146,-5.237277553147077
1746522224578938400,1.3999384765625,-3.690179044049978,-4.431758458364009,-1.599210973650217
1746522224588925400,1.409925537109375,-7.873118224412202,-4.843033905166387,3.300972805714607
1746522224598913500,1.41991357421875,-9.18621800802052,-5.375872369366884,5.570201932290196
1746522224608900400,1.429900390625,-8.835432393494248,-5.202944490912556,6.831151257422566
1746522224618888400,1.439888427734375,-6.613489918750524,-6.436463957327604,8.356150747436285
1746522224628876500,1.44987646484375,-2.571145788514614,-7.119161559084057,9.721924721133709
1746522224638863400,1.45986328125,-1.2797089706599711,-6.677342505457997,10.290880792897939
1746522224648851500,1.4698515625,-2.5407529883384705,-6.862016935807466,8.798716820037365
1746522224658838300,1.47983837890625,-4.053241956347227,-5.774436803156137,6.406659770694374
1746522224668826400,1.489826416015625,-5.868569961836934,-3.7403286840975283,4.457833103080094
1746522224678814500,1.499814453125,-7.36358464795351,-3.37719036847651,3.7665950519934293
1746522224688801300,1.50980126953125,-6.480642121750116,-3.8011069779261946,5.765651439154148
1746522224698789400,1.519789306640625,-3.0148090087026356,-5.042056594341993,8.301845156753062
1746522224708776200,1.529776123046875,-1.664564612570405,-4.418847538864612,6.647598524579405
1746522224718764300,1.539764404296875,0.3128717711955309,-3.40152869091928,2.897458640563488
1746522224728752400,1.54975244140625,2.7174866888165474,-2.030872205877304,0.10873539226800202
1746522224738739200,1.5597392578125,4.149129265218973,-0.27868659299910065,-1.6385910901412366
1746522224748727300,1.569727294921875,4.447334797680377,1.1394169951334594,-1.9603896796360611
1746522224758714400,1.57971435546875,3.8815988570064306,2.103713277943432,-0.8254267413020133
1746522224768702200,1.5897021484375,3.963264163780212,3.7066280745476483,1.1770473453477024
1746522224778690300,1.599690185546875,3.811566704881191,4.477925166255235,2.5644179415643213
1746522224788677000,1.609677001953125,3.691360362789035,3.0570594199329615,2.9941824002593753
1746522224798665200,1.619665283203125,4.168607288148999,2.081578456894308,3.8514620774179695
1746522224808652300,1.62965234375,4.117440580013394,1.9951612794183193,4.128014580997824
1746522224818640100,1.63964013671875,3.9851925024718042,2.229662693732232,4.135481263616681
1746522224828628200,1.649628173828125,3.981090327849984,2.54808289283514,4.261031012563407
1746522224838615300,1.659615234375,4.2268806134194135,2.715050986102223,4.476085383607447
1746522224848603100,1.66960302734375,4.286012601345777,2.7003797789320347,4.032002768963575
1746522224858590500,1.679590576171875,3.7758898268222807,2.756146674339473,3.5316321576476093
1746522224868578600,1.68957861328125,2.3571546627879143,3.4959564486324783,3.510209430390596
1746522224878566400,1.69956640625,0.39374037463366984,3.878980783462524,3.4960660464867948
1746522224888553700,1.7095537109375,-0.582719224178791,2.7844413331925866,3.2575448751375076
1746522224898541600,1.71954150390625,-0.6007745208293199,0.6739172061905264,2.6853952680289743
1746522224908528600,1.729528564453125,-0.36576574151515956,-0.9666866850778459,2.4414335130609572
1746522224918516700,1.739516845703125,-0.12163491359055041,-0.9548857726469635,2.385628185339272
1746522224928504600,1.749504638671875,-0.00824877290725708,-0.06918254955857991,1.6523520505987106
1746522224938491600,1.75949169921875,-1.016897992184758,0.17615063989311455,-0.15665992187829686
1746522224948479700,1.769479736328125,-3.751543321073055,-0.24326661231070756,-1.128751808734238
1746522224958466600,1.779466552734375,-6.419919649761915,-0.19234131171554325,-0.36883864615447814
1746522224968454700,1.78945458984375,-7.821817660763859,0.27824849384278055,1.2338082202285527
1746522224978442800,1.79944287109375,-8.132528454533219,0.23025778539478778,2.103097338002175
1746522224988429600,1.8094296875,-7.893411070856452,-0.4800353870347142,1.385884157051146
1746522224998417700,1.819417724609375,-6.94306264937818,-0.4793976736530661,0.3172655491750687
1746522225008404500,1.829404541015625,-5.573221572372317,0.2995464256763458,-0.5361866055846214
1746522225018392600,1.839392578125,-4.266833269101381,0.9084083913713693,-1.6153797259017824
1746522225028380700,1.849380615234375,-2.9426930360406636,0.9051216247856616,-2.6320368950679898
1746522225038367500,1.859367431640625,-1.4839982020616531,0.8869149369657039,-2.783154215991497
1746522225048355600,1.86935546875,-0.572801056754589,1.24375386018157,-1.8642245767362415
1746522225058342700,1.8793427734375,0.09306582171022891,1.6270558429092168,-0.906571823593974
1746522225068330500,1.88933056640625,1.2687035925209522,1.196380699110031,-0.5276841136446222
1746522225078318600,1.899318603515625,2.6512147660076617,0.2308890690356493,-0.5213084776654839
1746522225088305400,1.909305419921875,4.145567188823223,-0.10779080489426851,-0.9598416414886712
1746522225098293500,1.91929345703125,5.704897402983904,0.011201485233008861,-1.5919912515297532
1746522225108280600,1.929280517578125,7.020781848874687,-0.024705109928548335,-2.256316453510523
1746522225118268400,1.939268310546875,7.902083622133731,-0.1549909474864602,-2.765406377854943
1746522225128256500,1.949256591796875,8.454663728636502,-0.08541121530383824,-3.076858929902315
1746522225138243600,1.95924365234375,8.721226168599724,0.261895324935019,-3.4678529284372925
1746522225148231400,1.9692314453125,8.86551247445941,0.5598056738421321,-4.028033280810713
1746522225158219500,1.979219482421875,8.865833961498737,0.8675631707638501,-4.661231230860948
1746522225168206600,1.98920654296875,8.449323536652326,1.0714929212033748,-5.20793689237237
1746522225178194400,1.9991943359375,7.777454787424206,1.013567386457324,-5.352666265824436
1746522225188181800,2.009181640625,6.688905517479777,1.085068149830401,-5.322852726840972
1746522225198169300,2.01916943359375,5.121377968338131,1.2045268884256481,-5.064401112619042
1746522225208157400,2.029157470703125,3.651239364802837,1.2883745076745747,-4.330714205120504
1746522225218144800,2.039144775390625,2.146444458428025,1.5034382310688494,-4.080190169027447
1746522225228132600,2.049132568359375,0.6070692370593548,1.1412202451631426,-5.273867454397678
1746522225238119700,2.05911962890625,-0.18508534923791883,-0.01907294926047325,-7.4038774953752755
1746522225248107800,2.069107666015625,-0.6153291158825158,-1.4874267152056098,-9.716220956534146
1746522225258095600,2.079095703125,-1.575883289554715,-2.742126332293451,-10.601173068994283
1746522225268082700,2.089082763671875,-3.1647710221111773,-3.0226980083867905,-8.730051280090212
1746522225278070800,2.09907080078125,-4.972976628375053,-1.933237176555395,-4.6593917404741045
1746522225288057600,2.1090576171875,-7.137230299738049,-0.43530105003416536,-0.7941711137514561
1746522225298045700,2.119045654296875,-8.720893575644492,0.43000645075738425,1.5136644415289162
1746522225308033500,2.129033447265625,-9.483656647762656,0.31506343602091075,1.725397997587174
1746522225318020600,2.1390205078125,-9.66563643220067,0.16576368591338395,0.2969761002643034
1746522225328008700,2.1490087890625,-8.917355474421381,0.3207692464470863,-1.0722807105802
1746522225337995500,2.15899560546875,-7.73251966715455,0.7917185329675674,-1.6808716042488812
1746522225347983600,2.168983642578125,-6.759762429991364,0.8960515986233949,-1.7485715140342712
1746522225357971700,2.1789716796875,-5.933386425140499,0.49285541338026523,-1.275589552642405
1746522225367958500,2.18895849609375,-5.4610103206872935,-0.1348909932658076,-0.27441238627862186
1746522225377946600,2.198946533203125,-5.10968869958818,-0.4545253904640674,0.9976656145788728
1746522225387933400,2.208933349609375,-4.176188537058234,0.03937544031590223,2.424318273739517
1746522225397921500,2.218921630859375,-2.686339270880818,0.5109232772514224,3.2475840376153586
1746522225407909600,2.22890966796875,-0.8245768464744091,0.013501871129870413,3.2890932750895616
1746522225417896400,2.238896484375,0.8968097235143184,-0.2884387562066316,3.7167365038469433
1746522225427884500,2.248884521484375,2.053452286475897,-0.46478725675940513,3.5998242348641156
1746522225440368600,2.26136865234375,2.6157822180986403,-0.4128296905070543,2.9873174829259512
1746522225450356500,2.2713564453125,3.1844542122244834,-0.40566403666138645,2.05847186820358
1746522225460344600,2.281344482421875,3.449973280614614,-1.0542734908550977,1.610952849370241
1746522225470331600,2.29133154296875,5.119270766925811,-0.2932084548264742,2.644361831372976
1746522225480319500,2.301319580078125,6.667039138108492,0.04277823449671268,2.3334815262556075
1746522225490307600,2.3113076171875,7.562254285907745,0.3691422322109341,2.4627824444293975
1746522225500294700,2.321294677734375,7.535244698429107,0.43706162996590137,2.7372946743533015
1746522225510282500,2.331282470703125,7.680213141334057,0.9587950550451875,3.116777098792791
1746522225520269600,2.34126953125,6.508462441089749,1.9829913875445722,3.8402874801918863
1746522225530257700,2.351257568359375,3.617387364083528,2.4723428844571114,4.31777756665796
1746522225540245500,2.36124560546875,-0.17912790213823318,2.8480478361845014,3.793010180710256
1746522225550232600,2.371232666015625,-2.9116414796948433,3.2955224313542244,3.2605458105191585
1746522225560220400,2.381220458984375,-4.304986766406893,3.2335835693135855,3.6968250579357145
1746522225570207500,2.39120751953125,-4.92497802888155,2.5560773987203835,4.7417590580374
1746522225580195600,2.401195556640625,-4.3273423905998465,1.8207459388852119,5.592846310296655
1746522225590183400,2.411183349609375,-3.3546891983330247,1.182203120675683,5.227074139040708
1746522225600170500,2.42117041015625,-2.1545967852234837,1.038300845697522,4.389351687528193
1746522225610158600,2.43115869140625,-1.0607067387729883,0.5069844764977693,3.785010998649895
1746522225620146400,2.441146484375,-0.11752923183739185,-0.15733634156882761,3.479897878757119
1746522225630133500,2.451133544921875,0.6987281145811081,-0.5082800692662597,3.203731159624457
1746522225640121600,2.46112158203125,0.7332002930253744,-1.3301879887923598,2.5072557924062013
1746522225650108700,2.471108642578125,-0.2635913151979446,-2.0480463357791305,2.2544896764747797
1746522225660096800,2.4810966796875,-1.519313845592737,-1.9392679811522364,2.3086060281962153
1746522225670084400,2.49108447265625,-2.127294936800003,-1.4005463041320443,2.1566313597910103
1746522225680071700,2.50107177734375,-2.2963673088699577,-0.8578466633915901,1.9144070961400865
1746522225690059800,2.511059814453125,-2.442894671654701,-0.6920435222506522,1.576381302204728
1746522225700047600,2.521047607421875,-2.4933552773475647,-0.8259592407435178,1.3129459082208572
1746522225710034700,2.53103466796875,-2.4743583159327507,-0.7284077980518341,0.8937399606801569
1746522225720022800,2.541022705078125,-2.1957675845235585,-0.15777122585475445,-0.06244754221513867
1746522225730010600,2.5510107421875,-1.5082757342278956,0.18751608351618052,-0.9689924778021871
1746522225739997700,2.560997802734375,-0.9379857835114002,0.10474252323955296,-1.0805750031296164
1746522225749985800,2.57098583984375,-1.1228408311247824,0.29832039101272817,-0.38436500884927804
1746522225759972600,2.58097265625,-1.3860802641451357,0.6598369506508112,0.07087050264552235
1746522225769960700,2.590960693359375,-0.8996645284235477,0.5391346417352557,0.07806275223717093
1746522225779948500,2.600948486328125,0.27331542135477066,0.09789426477998495,0.5101065540410578
1746522225789935600,2.610935546875,1.5337281553924083,-0.2032929138407111,1.026494161112979
1746522225799923700,2.620923828125,2.8627479771882296,-0.43333354935348034,1.2173613086227326
1746522225809911600,2.63091162109375,4.221285569891333,-0.4728691486671567,0.23168672221936285
1746522225819898600,2.640898681640625,5.689212342596054,-0.44193917287439105,-1.3952917446047066
1746522225829886700,2.65088671875,6.877481046921014,-0.1980035752609372,-2.8029093022972345
1746522225839874600,2.66087451171875,7.586336587762832,0.4749433245927095,-3.7270576991140842
1746522225849861600,2.670861572265625,7.960073454287648,1.2201578805387019,-4.095549650722742
1746522225859849700,2.680849609375,7.931304455921054,1.5901660819292067,-4.201891133591532
1746522225869837600,2.690837646484375,7.414940741181373,1.7793004142969846,-3.80097516824007
1746522225879824100,2.70082421875,6.569843669247627,1.466532395736873,-3.8357910455554722
1746522225889812000,2.71081201171875,5.580788792756199,0.6992258349701762,-3.722445821404457
1746522225899800000,2.720800048828125,4.681510048779845,0.45479017888009543,-3.7287972362577912
1746522225909787100,2.730787109375,3.592746259301901,0.3531301318258047,-4.02362861611098
1746522225919775000,2.74077490234375,2.5122441022127866,0.3758186412349343,-4.124921291157603
1746522225929763000,2.75076318359375,1.0264479108184577,0.2981698766261339,-4.194083090189099
1746522225939750100,2.760750244140625,-0.6705015525281429,-0.18762392780482767,-4.431910141794384
1746522225949738000,2.770738037109375,-1.4920096590816974,-0.7173299391984939,-4.772133738034963
1746522225959726000,2.78072607421875,-2.3233114298969504,-1.0991849379882215,-4.072299123516679
1746522225969713000,2.790712890625,-4.015530942112207,-1.3705784513697028,-2.7295807389751077
1746522225979701000,2.800700927734375,-4.933480484288931,-1.062111344873905,-3.106695265239477
1746522225989689000,2.810689208984375,-6.6359817365437745,-0.272044670766592,-2.825398197481036
1746522225999676000,2.820676025390625,-7.092851644307374,0.4362465141907334,-1.8110694712623954
1746522226009664000,2.8306640625,-6.57295157213509,0.3451560842067003,-1.0609751804508267
1746522226019652000,2.840652099609375,-6.735611739075184,0.2496943072706461,-1.0599616194941104
1746522226029639000,2.850638916015625,-7.412553553783893,0.30414018320739267,-1.4046483326233923
1746522226039627000,2.860626953125,-7.960726949760318,-0.5044532044544816,-2.0079023953087627
1746522226049615000,2.870614990234375,-8.229628061804174,-1.4140554817855358,-1.6839171094246208
1746522226059602000,2.880601806640625,-8.194058151251078,-1.3613304382920264,-0.22945436005741357
1746522226069590000,2.890590087890625,-7.201862054124474,-0.024705986711382865,1.872199355007708
1746522226079578000,2.900578125,-5.509155050653219,0.9343456734433769,3.168576259613037
1746522226089565000,2.91056494140625,-3.8325919572532174,0.6400716352120042,3.2008398220971226
1746522226099553000,2.920552978515625,-2.014027454060316,0.4955921448677778,2.688823781172931
1746522226109541000,2.930541015625,-0.055613166150450706,0.8269210715129971,1.8997217143140732
1746522226119529000,2.940529052734375,1.3440028713941574,0.8492867787085473,0.9536626605927944
1746522226129516000,2.95051611328125,2.1032383539080617,0.9111239339403807,0.2457046531125903
1746522226139504000,2.960504150390625,2.5212884094119072,1.9465154680624603,0.034733751989901064
1746522226149492000,2.970491943359375,2.2943401869565245,2.5834464671611785,0.1125534892514348
1746522226159479000,2.98047900390625,2.462204936802387,2.519288760027289,1.0134748858682812
1746522226169467000,2.990466796875,3.6035827106148,2.7260858825966716,2.1687319858208296
1746522226179455000,3.000455078125,4.8034097507864235,2.810977457940578,2.5219290454030037
1746522226189442000,3.010442138671875,5.603536631137132,1.8424625345222652,1.699227345150709
1746522226199430000,3.020429931640625,6.594055734962224,0.769270992707461,0.29890388998910783
1746522226209418000,3.03041796875,7.4373063022464505,0.6401238037906587,0.45396498010233044
1746522226219405000,3.040405029296875,7.148299390763044,1.4701466407112775,2.42529179494679
1746522226229393000,3.050392822265625,5.291684850639104,0.5925766013264656,3.8404660516291855
1746522226239381000,3.060381103515625,2.7837854996323586,0.11639993554651737,4.756905773764848
1746522226249369000,3.070369140625,-0.5892126778513193,1.6678391041964291,4.292813221271336
1746522226259356000,3.08035595703125,-1.8868384134739635,3.4320468710407614,3.3715511935457587
1746522226269344000,3.090343994140625,-2.9946260523736474,4.200469576355815,3.8934249038785693
1746522226279332000,3.10033203125,-4.219732495230436,4.127326014211774,4.317596072611212
1746522226289319000,3.11031884765625,-4.03007209316194,1.7762348892465232,3.699187110891938
1746522226299307000,3.12030712890625,-3.964118150261044,-2.008622672407329,1.3056520979508757
1746522226309295000,3.130295166015625,-2.888564555490017,-2.9188971499115226,-0.8639256910443306
1746522226319283000,3.140282958984375,-1.5620891574800013,-2.3034555135652424,-1.885704879399389
1746522226329270000,3.15027001953125,-1.6959855867505071,-2.2215108053281902,-1.424048321881145
1746522226339258000,3.160258056640625,-3.1984710471391677,-0.8328256193816661,0.21609408935531974
1746522226349246000,3.170245849609375,-4.333187609496712,-0.13887874772772194,1.7750053474515675
1746522226359233000,3.18023291015625,-4.19939522512257,-0.05352861496135592,2.6547306651741263
1746522226369220900,3.190220947265625,-3.1966303877085447,-0.4793282616786658,2.5920421538099645
1746522226379209000,3.200208984375,-2.8709646013915537,-2.373918604453653,2.327538692203164
1746522226389197000,3.210197021484375,-2.5325059689968823,-3.034986996595561,1.374960173585266
1746522226399184000,3.220183837890625,-2.5229385147064924,-3.011837299415469,0.9211069102291017
1746522226409172000,3.230171875,-1.597810459202528,-1.1908550675563514,1.7347111848555505
1746522226419160000,3.24016015625,-1.5764625507473944,0.30243674029037354,2.2198767743855714
1746522226429148200,3.250148193359375,-2.218708315128088,1.4220517412364482,1.980929194317758
1746522226439135000,3.260135009765625,-2.4993179851442573,2.2086215131387115,1.1233887473311275
1746522226449123000,3.270123046875,-2.5389783798813816,1.440254629664123,-0.05773987598083913
1746522226459111000,3.28011083984375,-1.9349521637797356,-0.7872961134154349,-1.0593218602858483
1746522226469098000,3.290097900390625,-0.37587504759728907,-1.8760330879516898,-1.343991327086836
1746522226479086000,3.300086181640625,1.2827952462375163,-2.0046796338699755,-1.257258361659944
1746522226489074000,3.310073974609375,2.409583938205242,-2.1058402069695292,-1.64512166095376
1746522226499062000,3.32006201171875,3.241141729608178,-1.696331039187312,-3.4807007195726034
1746522226509049000,3.330049072265625,4.1825042960762975,-2.309119530676305,-4.239497518408299
1746522226519037000,3.340036865234375,4.416998111605644,-3.4501632502287625,-3.03897080553472
1746522226529025000,3.35002490234375,4.136478457960486,-4.034569404581189,-2.725077582336962
1746522226539013000,3.36001318359375,4.860023618412018,-3.3887282460570334,-2.6526795778632164
1746522226549000000,3.37,5.095532748463749,-2.3833839135438204,-2.880489970105886
1746522226558988000,3.379988037109375,4.665373737493157,-1.3253012396641075,-3.424222461025417
1746522226568976100,3.38997607421875,4.183194031906128,-0.3090669720850885,-3.682909637568891
1746522226578963000,3.399962890625,3.5243443387269973,0.2590831901237368,-3.643810968367755
1746522226588951000,3.409950927734375,2.9737714803934097,0.25122780044823884,-3.8322412441194054
1746522226598939100,3.419939208984375,2.3844839837402105,-0.3030852673269808,-3.954500427088141
1746522226608927000,3.429927001953125,1.6695862401247024,-0.4643019574604928,-3.2421558750867843
1746522226618914000,3.4399140625,0.8569786483854055,0.17700886415764688,-2.3751214043721554
1746522226628902100,3.449902099609375,0.2412234160453081,1.0041429938994348,-2.17790722592324
1746522226638890000,3.459889892578125,0.05929565405547618,1.0613818615555763,-2.706112477365136
1746522226648878000,3.469878173828125,-1.0076245524048804,-0.9343494728356599,-3.748715988692641
1746522226658865000,3.479864990234375,-3.108745183506608,-3.065199179507792,-4.793782090741396
1746522226668853000,3.48985302734375,-2.4282500602304933,-3.3707132814168927,-2.781123586946726
1746522226678841000,3.499841064453125,-2.4367431632876393,-4.700240175952017,-2.1537381225675345
1746522226688829200,3.5098291015625,-2.6642478505820035,-5.1043724730014794,-2.499272392436862
1746522226698816000,3.51981591796875,-3.822985924518108,-4.2663937086403365,-1.5612019993819295
1746522226708804000,3.52980419921875,-5.199927773439883,-2.4853785993799566,0.07624516315488145
1746522226718792200,3.539792236328125,-4.481318315824866,-0.5855506482124329,0.6426967230185866
1746522226728780000,3.549780029296875,-3.3049095606416463,0.3667494918555021,0.5014586622809991
1746522226738767000,3.55976708984375,-3.480598720502853,0.1215329145208001,0.5774850498523563
1746522226748755000,3.5697548828125,-3.7373371010661125,-0.8383847148135304,0.25617636276632544
1746522226758743000,3.579742919921875,-4.035597578585148,-1.6067779017731547,-0.3220235573571175
1746522226768731100,3.589731201171875,-4.220686434954405,-1.5793980196774005,-0.6405004550833254
1746522226778718000,3.599718017578125,-4.04001422598362,-1.044798391023278,-0.647433103890717
1746522226788706000,3.6097060546875,-3.7266876967579123,-0.33492753565907474,-0.08959025455415248
1746522226798694100,3.619694091796875,-3.0054128193259237,0.4055392412379384,0.9137724026225507
1746522226808682200,3.62968212890625,-2.335506310081482,0.9620584407553077,1.7649394421197473
1746522226818669000,3.6396689453125,-1.8585498921006918,1.7312357638299465,2.0325467149607834
1746522226828657200,3.6496572265625,-0.8012585147291421,2.5388980081215498,1.5968592959575354
1746522226838645000,3.65964501953125,0.7680319524317979,3.2867642476201056,1.286221713554859
1746522226848633000,3.669633056640625,1.9753566548824308,4.211915976260602,1.1999126726284624
1746522226858620200,3.6796201171875,2.5395254923701285,5.068584535783529,1.1212056311383842
1746522226868608000,3.68960791015625,2.400780454024672,5.731790086084604,1.1688187384456394
1746522226878596000,3.69959619140625,2.115304639276862,5.817125605803728,1.359878485918045
1746522226888584000,3.709583984375,2.38886731339097,4.910682961547375,1.337134446929395
1746522226898571000,3.719571044921875,2.776931980475783,3.888289294555783,1.6164368337392807
1746522226908558800,3.729558837890625,2.4575357759475707,3.2395465693712233,1.9528373645603656
1746522226918547000,3.739546875,2.146847778531909,3.0133132171869277,2.1178313812755047
1746522226928535000,3.74953515625,2.823734648182988,3.1949685919761657,2.5653145981431007
1746522226938521900,3.75952197265625,3.5084459278494116,3.029093554642796,2.8315535052403806
1746522226948510000,3.769510009765625,3.3605794254153967,2.627882697997987,2.9322926380574703
1746522226958498000,3.779498046875,2.253781382074952,2.43892401445806,3.546388997274637
1746522226968486100,3.789486083984375,0.4461035990774631,2.5236706283733246,3.926908363546431
1746522226978473000,3.799472900390625,-0.9906710795164108,2.6099519045099613,3.479498650306463
1746522226988461000,3.8094609375,-1.0326613785058258,1.8137343065574765,2.290514783449471
1746522226998449000,3.819448974609375,0.1084212117522955,0.7952677498817443,1.7432054569564759
1746522227008437000,3.82943701171875,1.3260685707747935,-0.7872998397424816,1.2276727862134575
1746522227018424000,3.839424072265625,1.9276263509362934,-2.3635937559247013,0.6323847339712083
1746522227028412000,3.849411865234375,2.0145546928048135,-3.561214225962758,0.19667451861426233
1746522227038400000,3.85939990234375,1.0397212338894606,-4.957549926662445,-0.5977995966717601
1746522227048388000,3.86938818359375,-1.6013304500222205,-5.063126270377635,-1.3722018147878348
1746522227058376200,3.879376220703125,-2.6874656445622445,-3.7204391577571627,-0.08202975617200135
1746522227068363000,3.889363037109375,-2.982373889043927,-3.2703856520101424,0.9593902444593608
1746522227078351000,3.89935107421875,-2.8650124149888754,-2.7861449222400783,1.671269809297472
1746522227088339000,3.9093388671875,-2.14966166690886,-2.666795781499147,2.235769047783315
1746522227098327000,3.9193271484375,-1.6912983057171105,-2.472306059578061,2.30272705316022
1746522227108314000,3.929314208984375,-1.7273755812704563,-1.7544927207767962,2.0443821141831577
1746522227118302000,3.939302001953125,-2.1244676044195887,-1.0944266375452278,1.8253487565055488
1746522227128290000,3.9492900390625,-2.259521387031674,-0.7081476848334074,1.46141388367936
1746522227138278000,3.95927783203125,-1.979194625610113,-0.22834698333740233,1.3535561510287224
1746522227148265000,3.969264892578125,-1.1679425401329993,0.308115808840096,1.285892043209076
1746522227158253000,3.979253173828125,0.12078326519727706,0.8882125755608081,1.2219465905863791
1746522227168241200,3.9892412109375,1.3074217379719018,1.1247355588302015,1.2326423913195728
1746522227178228700,3.999228759765625,1.8316665613502263,1.1613804051384329,1.2330654390372335
1746522227188216800,4.009216796875,1.6955355048954486,0.9398331649437546,1.1431753247536718
1746522227198204200,4.0192041015625,1.2228905203729867,0.18155016084909437,0.3706149351119995
1746522227208191700,4.029191650390625,1.248048927026987,-0.3111611678853631,-0.45127559488788244
1746522227218179800,4.039179931640625,1.5392279218524694,-0.09883622180521488,-0.999993619135022
1746522227228168000,4.04916796875,1.7957056056529281,0.3533598489284515,-1.5493239300616084
1746522227238155000,4.059155029296875,2.07123811853528,0.7284048754423856,-2.3741201183751226
1746522227248142800,4.069142822265625,2.5992244665294884,1.0915972593382,-2.9416566787302494
1746522227258131000,4.079130859375,3.3687259069919584,1.5889263110011815,-2.818684379056096
1746522227268118800,4.089118896484375,4.108634173223376,1.7347680296093224,-2.5143016192644834
1746522227278107000,4.09910693359375,4.816401918828487,1.2328449281543492,-2.1913838164813817
1746522227288094000,4.109093994140625,4.958682730084657,0.8612453659191727,-1.651289243672788
1746522227298081800,4.119081787109375,4.778213934731483,0.28557985964417454,-1.5503367603659628
1746522227308070000,4.12906982421875,4.064002419814467,-0.32067133903056383,-1.0631884725861251
1746522227318058000,4.13905810546875,2.7870950625717636,-0.4928977912172675,-0.7627252243258058
1746522227328045800,4.1490458984375,1.42251468257308,-0.5529848879113793,-1.537763548388332
1746522227338033000,4.159032958984375,-0.012243395501375197,-1.1148796429872512,-2.9150559643134475
1746522227348021000,4.16902099609375,-0.6552163051128387,-1.8424515747368335,-3.760258542448282
1746522227358008800,4.1790087890625,-1.1830337262809276,-2.4893606547534466,-3.1749297202929854
1746522227367997000,4.188996826171875,-1.4670628493517637,-2.965319878390431,-1.4053610109373926
1746522227377984000,4.19898388671875,-0.8132967430472373,-2.6333406711429355,0.3967188059225678
1746522227387971800,4.208971923828125,-0.1327893448114395,-2.043295049598813,0.9970128497585654
1746522227397960000,4.2189599609375,-0.3245785756021738,-2.3384669134527445,-0.08234276764392852
1746522227407948000,4.228947998046875,-0.8582166657477617,-3.0032699620783325,-1.4767882706828415
1746522227417936000,4.238935791015625,-0.8594839092046022,-3.11696589936316,-1.9080150570154188
1746522227427923000,4.2489228515625,-0.43633974543213844,-3.0530215427190064,-1.4613311738319694
1746522227437911000,4.2589111328125,-0.3786661396205425,-3.3001828243806957,-0.6831807090982794
1746522227447899000,4.26889892578125,-1.1194190399825572,-3.190004832088947,0.19991028566509483
1746522227457887000,4.278886962890625,-2.4532068068325517,-2.176814754511416,0.9573279051020741
1746522227467875000,4.288875,-3.6856963456779717,-0.8892115234702825,1.4168462815478444
1746522227477862000,4.29886181640625,-4.238288142618536,0.07698474774211644,1.3517287894710897
1746522227487850000,4.30885009765625,-4.1299715602844955,0.7342351890310644,1.1120645855665205
1746522227497838000,4.318838134765625,-3.688786128386855,1.39665631095618,1.0331425861515104
1746522227507826000,4.328825927734375,-2.934875640287995,2.0790742189884184,1.233711627986282
1746522227517814000,4.33881396484375,-1.9281044898420572,2.3692615724280475,1.59464074312523
1746522227527801000,4.348801025390625,-1.0668278520017862,2.407390227553248,2.0224971762418744
1746522227537789000,4.358788818359375,-0.3666132982552051,2.474746730728447,2.230577762750536
1746522227547777000,4.368777099609375,0.21331424937844276,2.462026073104143,2.181615140530467
1746522227557765000,4.37876513671875,0.6469961737781763,2.294304531121254,1.960237850075215
1746522227567753000,4.3887529296875,0.9117565327554941,2.0449346334993836,1.7441763478152452
1746522227577740000,4.398739990234375,1.1614110925376415,1.7759595794364809,1.8573197657838463
1746522227587728100,4.40872802734375,1.5336030677080152,1.6890329911336301,2.2861292618416247
1746522227597716000,4.418716064453125,1.8498498682945965,1.6941516493216155,2.664657015904784
1746522227607703800,4.428703857421875,1.822485476028919,1.6546449838414787,2.735596053741872
1746522227617691100,4.438691162109375,1.368638130956888,1.7120523399323224,2.6623119140833613
1746522227627679000,4.448678955078125,0.7146417230278254,1.80719087626338,2.555332717832923
1746522227637666800,4.458666748046875,-0.2635305249214172,1.9492209276288746,2.4127251588404177
1746522227647655000,4.468655029296875,-1.2032809800177813,2.1083581811398266,2.2801903733119366
1746522227657642800,4.478642822265625,-1.9204753101378678,2.0950833967640996,2.0290730475008485
1746522227667630000,4.488630126953125,-1.9633862311035393,1.605915439724922,1.601047833688557
1746522227677618000,4.498617919921875,-1.2954355321019888,0.7853153879269957,1.4020321587756275
1746522227687605800,4.508605712890625,-0.5797732338547706,0.09110416624844074,1.6037369266420602
1746522227697593900,4.51859375,-0.09585749825537204,-0.4733770981892943,1.580122534559667
1746522227707582000,4.52858203125,-0.0455745872169733,-0.9449439320862293,0.943597778174281
1746522227717568800,4.53856884765625,-0.4509346724957227,-1.333669693428278,-0.20909429359585047
1746522227727556900,4.548556884765625,-1.1070721841067075,-1.4199053768575192,-1.0003199284799396
1746522227737545000,4.558544921875,-2.2057097173452376,-1.4766604065194726,-0.7407707282796502
1746522227747532800,4.56853271484375,-3.198695503544807,-1.5949182448923587,0.24505948707684874
1746522227757521000,4.57852099609375,-3.436605849519372,-1.4921034748449922,1.182091184733808
1746522227767508000,4.588508056640625,-3.0943361344039437,-1.5529334988608956,1.647106112769246
1746522227777495800,4.598495849609375,-2.5346499952882526,-1.6168085896611213,1.7681318084202706
1746522227787484000,4.60848388671875,-2.0032892024248836,-1.4130249696940183,1.8076174311123787
1746522227797472000,4.618471923828125,-1.7329677021890877,-1.0522875777348875,1.7025202492162583
1746522227807460000,4.628460205078125,-1.5936328812569378,-0.744663351804018,1.2043308543968945
1746522227817447000,4.638447021484375,-1.238461014470458,-0.5772241338938474,0.5115618674159049
1746522227827435000,4.64843505859375,-0.7739905685752629,-0.5466030779197811,-0.08406184652149677
1746522227837422800,4.6584228515625,-0.14920155043005942,-0.6258984406918287,-0.2370453266430646
1746522227847411000,4.668410888671875,0.9238397692590952,-0.5119625571712851,-0.0031296763278543947
1746522227857399000,4.67839892578125,2.1791712545096873,-0.15943974358886479,0.017050868848338722
1746522227867385900,4.6883857421875,3.122950818991661,0.16935674196928738,-0.2985950432356447
1746522227877374700,4.698374755859375,3.626320027601719,0.4619026412338018,-0.9156296478617936
1746522227887362800,4.70836279296875,3.6497570172905918,0.6037015141919255,-1.7338786795541643
1746522227897350700,4.7183505859375,3.1420857275724408,0.5236933269754052,-2.6438345926284788
1746522227907338500,4.72833837890625,2.459372343724966,0.30160452724993225,-3.3962621486932036
1746522227917325800,4.738325927734375,1.9856845721513032,-0.03158464030921459,-3.7059950373411175
1746522227927313700,4.748313720703125,1.882065207722783,-0.31709961802363396,-3.318589710947871
1746522227937301800,4.7583017578125,2.1163176157116887,-0.36130320914834735,-2.4803446968659757
1746522227947289600,4.76828955078125,2.3485089995175596,-0.30538287674486636,-1.6484762320786714
1746522227957277400,4.77827734375,2.488262922644615,-0.1995508047029376,-0.9242987650729715
1746522227967264800,4.7882646484375,2.4553210225075484,0.0783832163631916,-0.5799065048456191
1746522227977252600,4.798252685546875,1.9577450103461742,0.4548182359308004,-0.9526906006902456
1746522227987240400,4.808240478515625,1.2343453958451747,0.6044207683771848,-2.109070274931937
1746522227997228500,4.818228515625,0.522158664754033,0.27350392966419457,-3.6664369339346883
1746522228007216600,4.828216552734375,0.1030395187139511,-0.5488976185977459,-4.962759185743332
1746522228017203500,4.838203369140625,0.07271393855512141,-1.1596844148755072,-5.45961915858984
1746522228027191600,4.848191650390625,0.05130933147668838,-1.285854341547191,-5.173870372119546
1746522228037179600,4.8581796875,-0.15382804118692875,-1.1170847518160938,-4.116266860058904
1746522228047167500,4.86816748046875,-1.2517653172016143,-0.9859098564639687,-3.0125989314377306
1746522228057154600,4.878154541015625,-3.0542221506804226,-1.2886013021677731,-2.7215479469060897
1746522228067142700,4.888142578125,-4.538543008825183,-1.6610422836631535,-2.7372332995548843
1746522228077130500,4.898130615234375,-5.181573201581836,-1.4894336711138485,-2.18249996054098
1746522228087118600,4.90811865234375,-5.10776679161489,-0.965127472937107,-1.1121737450294196
1746522228097106700,4.918106689453125,-4.7650008174151175,-0.7074757769212127,-0.04323503835350275
1746522228107093500,4.928093505859375,-4.366604725930094,-0.5445701107874512,0.7976997993342578
1746522228117081600,4.93808154296875,-4.07654801313281,-0.37675884469449517,1.3637380839556454
1746522228127069700,4.948069580078125,-3.5693075160473584,-0.18912644132226705,1.6999356395505367
1746522228137057500,4.9580576171875,-2.847519428396225,0.09682020580768584,1.915111445017159
1746522228147045600,4.968045654296875,-2.167031903904676,0.3360194225490093,1.934055799461901
1746522228157032700,4.97803271484375,-1.4483844523668288,0.46601679855436084,1.9270599492251872
1746522228167020500,4.9880205078125,-0.668597180211544,0.5914499353840946,2.0017760213829576
1746522228177008600,4.998008544921875,0.1825736586779356,0.9882195947110652,2.21460628663674
1746522228186996700,5.007996826171875,1.053207907450199,1.6896496617272496,2.6574343711748716
1746522228196983600,5.017983642578125,1.692666671460867,2.4544477468043566,3.150922529500723
1746522228206971600,5.0279716796875,2.2231869218468665,3.034147915422916,3.4400171192675826
1746522228216959700,5.037959716796875,2.680149768590927,3.5083030122473833,3.7304701379060745
1746522228226947600,5.047947509765625,3.031680648526549,4.008735582883656,4.417910550275445
1746522228236935700,5.057935791015625,3.3232062648326157,4.336854899832606,5.209453142154216
1746522228246922800,5.0679228515625,3.554490470665693,4.189366875322163,5.534315210872888
1746522228256910600,5.07791064453125,3.8998388625741,3.788705761514604,5.586425921860337
1746522228266898700,5.087898681640625,3.8128187507688995,3.932536724822223,6.195852535700798
1746522228276886800,5.09788671875,3.290920198255777,3.642416299138963,5.7529404261410235
1746522228286873600,5.10787353515625,2.4468097992718216,3.603301263324916,5.717886648416519
1746522228296861700,5.11786181640625,1.5025240388333796,3.974858739984035,5.43278083602488
1746522228306849800,5.127849853515625,0.9836100550889968,3.425684350271523,3.085221684578061
1746522228316837600,5.137837646484375,0.7936147219777107,2.906848984721303,1.7690443932205437
1746522228326825700,5.14782568359375,0.4120698120504617,2.8718361235290764,1.4583350607559085
1746522228336812800,5.157812744140625,-0.03883329626321792,3.050200055557489,1.2867968830943106
1746522228346800600,5.167800537109375,-0.5904612166076898,2.706835823203623,0.5936000991553068
1746522228356788700,5.177788818359375,-0.8898597582459449,2.3884055410981175,0.028439035759866237
1746522228366776800,5.18777685546875,-1.323933896833658,2.7290397639662025,0.15206599995046854
1746522228376763600,5.197763671875,-1.9595278021097182,2.0703587053522465,0.21999416553378104
1746522228386751700,5.207751708984375,-2.841897496861219,0.49302317116260524,-0.13176935411393642
1746522228396739800,5.21773974609375,-3.683071257871389,-1.364563428863883,-0.33734774854332206
1746522228406727700,5.227727783203125,-3.5998593061774966,-3.341538040336966,-0.3539201131597161
1746522228416715500,5.237715576171875,-3.3494524667233225,-5.029843593978882,-0.4563417922362685
1746522228426702800,5.247702880859375,-3.3681869778096676,-5.862458785480261,-1.1068740311861038
1746522228436690700,5.257690673828125,-3.7603725242167707,-5.867296288639307,-2.599346339343488
1746522228446678500,5.267678466796875,-3.847801801344752,-5.336169304531812,-4.0037338290736075
1746522228456666600,5.27766650390625,-3.0798534355431793,-4.394493434330821,-4.026491019804776
1746522228466653700,5.28765380859375,-1.9865344669789076,-3.790609841570258,-3.2944869508266446
1746522228476641500,5.2976416015625,-0.964724737355113,-3.5148955423802137,-2.5012252800703045
1746522228486629600,5.307629638671875,-0.06654547905325889,-2.5835227472677826,-0.7793497575208544
1746522228496617500,5.317617431640625,0.46039223667085166,-1.3737369154006243,0.7106701890483498
1746522228506605600,5.32760546875,0.667034168678522,-1.5957415439739822,-0.10130728809386491
1746522228516592600,5.337592529296875,0.5948293486893177,-1.1031450737908481,-1.1242959983691572
1746522228526580500,5.34758056640625,0.9048042293995618,-0.34851357794106,-1.7234227519914507
1746522228536568600,5.357568603515625,1.7508850516736507,0.5063946939110756,-1.3174451193362473
1746522228546556700,5.367556640625,2.7561235857248305,1.5441770686924456,-0.13341478323340414
1746522228556543500,5.37754345703125,3.349913069972396,1.3583739265739916,-0.270019302418828
1746522228566531600,5.387531494140625,4.390120626074076,1.0490563407287001,-0.18789046978652477
1746522228576519700,5.397519775390625,4.623750518250465,-0.160023096434772,-1.3833349109597504
1746522228586507500,5.407507568359375,3.889297010293603,-1.74496472171396,-3.095992084917426
1746522228596494600,5.41749462890625,3.583657528439164,-1.7470657856464384,-3.0831758579641577
1746522228606482700,5.427482666015625,3.3441508531838653,-1.2165320912569761,-2.2007541407644746
1746522228616470500,5.437470458984375,2.7740760065227748,-0.9726619600951671,-1.7744469829164444
1746522228626458600,5.447458740234375,2.7070553111732005,-0.6126107968345285,-1.6478971170164645
1746522228636445400,5.457445556640625,3.1398727276980876,-0.02230535531044006,-1.3198759997449814
1746522228646433500,5.46743359375,3.9340199491173027,0.41336745064556596,-0.7144102523595094
1746522228656421600,5.477421630859375,4.540350350508094,0.5734916693672537,-0.22278087364286184
1746522228666409700,5.48740966796875,3.8492590144157406,0.6901584391564131,-0.2732401641614735
1746522228676396500,5.497396484375,0.620539544007182,0.563964839348197,-1.5622715283095836
1746522228686384600,5.507384521484375,-0.7354805129170418,0.6507470507442951,-2.373074993236363
1746522228696372500,5.51737255859375,0.0900514423251152,0.9681602647617459,-2.3308953091546893
1746522228706360600,5.527360595703125,0.3649421501725912,0.9573220598831772,-2.423714024236053
1746522228716348700,5.5373486328125,-0.9057429715543985,0.2730418651103973,-3.41059228734076
1746522228726335500,5.54733544921875,-3.4030642299234866,-1.365561207729578,-4.880163320121169
1746522228736323600,5.557323486328125,-5.3231531710922715,-3.179082456058264,-6.204341547104716
1746522228746311700,5.567311767578125,-6.066915774664283,-4.344328888975084,-6.502648201853036
1746522228756299800,5.5772998046875,-5.6353562492460005,-4.68412081580013,-5.291150013110041
1746522228766286600,5.58728662109375,-5.1837856169342995,-4.956020817399025,-3.7216707453787325
1746522228776274700,5.597274658203125,-4.016185606628656,-3.46571299379915,-2.758145739202201
1746522228786262500,5.607262451171875,-1.9938199478119611,-0.5168482833862305,-0.6930695042975247
1746522228796250600,5.617250732421875,-1.0857552553117276,0.132227034753561,0.17962613398395477
1746522228806237700,5.62723779296875,-0.30350246982574464,0.6182520175918936,0.1766467711132951
1746522228816225500,5.6372255859375,0.33590894791185855,1.0151704377397894,0.19727454860033466
1746522228826213600,5.647213623046875,0.9167658853501081,1.2662649671971797,0.19791587871117516
1746522228836201700,5.65720166015625,1.5322019687384365,1.5153274063050746,0.11365158668644726
1746522228846188500,5.6671884765625,1.9286592011153696,1.5386109589979051,0.08075834799669683
1746522228856176600,5.6771767578125,2.502299631303549,1.239792263074219,0.26745485875830055
1746522228866164700,5.687164794921875,3.2351901277273893,1.0052525625765323,0.7514356224179267
1746522228876152600,5.697152587890625,3.6422383122235535,1.1229738098546862,1.4365820786312222
1746522228886139400,5.707139404296875,3.9068636466443536,1.5916127736061811,1.9449473419629035
1746522228896127500,5.71712744140625,4.25098337354064,2.0635437646403907,2.282558563748002
1746522228906115600,5.727115478515625,4.601115492594242,2.3396850570708514,2.5063266948625444
1746522228916102400,5.737102294921875,4.731006777876615,2.4433361318118867,2.0224140280030665
1746522228926090500,5.747090576171875,4.466768981468677,2.328606467565149,0.888444046229124
1746522228936078600,5.75707861328125,3.6344793686598535,2.0141981344521045,-0.26083178735673423
1746522228946066700,5.767066650390625,2.8600907406777143,1.3579625692941248,-1.0763993248801678
1746522228956054500,5.777054443359375,2.7544968613058325,0.9567413373857736,-1.097247394054383
1746522228966041600,5.78704150390625,2.492498368257284,1.6305886932104825,0.45694881821870803
1746522228976029400,5.797029541015625,2.453305591031909,2.6725863475993274,1.973118520566821
1746522228986017500,5.807017578125,0.8715683147519826,3.5662378993436694,4.119440813919901
1746522228996004600,5.817004638671875,-0.5321867222934961,4.278956837615371,5.749471288725734
1746522229005992400,5.826992431640625,-1.2450894926995038,3.8279014613494273,5.866622334900498
1746522229015980500,5.83698046875,-2.685513341450691,2.9678824223548173,5.997892507320642
1746522229025968600,5.84696875,-4.009398138445616,2.5100392856448885,6.591836305347084
1746522229035955500,5.85695556640625,-4.654100063806772,1.625227458438277,7.408713244968652
1746522229045943600,5.866943603515625,-4.483227948838472,-0.1499143748745322,8.098692235904931
1746522229055931600,5.876931640625,-4.583451241087913,-1.1620210411295293,8.431385728901624
1746522229065919500,5.88691943359375,-5.086394917762279,-0.5369722030043602,8.63156460237503
1746522229075906600,5.896906494140625,-6.163056181514262,0.22751550094932316,8.769756683012842
1746522229085894700,5.906894775390625,-7.937315094512701,0.5865057569801807,9.115712393164634
1746522229095882500,5.916882568359375,-9.739647424829005,0.9164908678010105,9.381142614227533
1746522229105870600,5.92687060546875,-10.610804820692538,1.3268000999197362,8.98474149595201
1746522229115857700,5.936857666015625,-10.331052644288539,0.8822697415083647,8.33838478912115
1746522229125845500,5.946845458984375,-8.47434516518414,-0.8412339667648077,6.544740792173147
1746522229135833600,5.95683349609375,-6.04938947032392,-2.534015204516053,3.606166297367215
1746522229145821700,5.96682177734375,-3.699313952142,-3.7199832306832072,0.528617339374125
1746522229155808500,5.97680859375,-1.2771639623522757,-4.458585675013065,-1.9988059195309875
1746522229165796600,5.986796630859375,1.0043442155599593,-4.5807545493498445,-3.5223382596015926
1746522229175784700,5.99678466796875,2.1364573174208403,-3.8376810970857735,-4.34681719865948
1746522229185771500,6.006771484375,2.180292952015996,-2.6825600446030498,-5.29270074968338
1746522229195759600,6.016759521484375,1.539858620971441,-1.8009806234464047,-6.701456956017017
1746522229205747700,6.026747802734375,0.0165916538387537,-1.2366887441009282,-7.842281187599897
1746522229215735600,6.036735595703125,-1.7695786462277172,-0.7706523640632629,-8.524896371769904
1746522229225722600,6.04672265625,-3.070307024040818,-0.5267402934558689,-8.794699985611437
1746522229235710500,6.05671044921875,-3.621961247870326,-0.5773796167165041,-8.495825175586342
1746522229245698600,6.066698486328125,-3.398456443867087,-0.7088695693671703,-7.812374709635972
1746522229255686400,6.076686279296875,-2.6147815166234967,-0.865227567423135,-7.03843791707456
1746522229265673500,6.086673583984375,-1.0844313132315873,-0.8868865876540541,-6.037157180738449
1746522229275661600,6.09666162109375,1.3427584242910147,-0.4856326225198805,-5.228920059168338
1746522229285649700,6.106649658203125,3.876417070454359,0.24609978991001843,-5.299672926783561
1746522229295637500,6.116637451171875,5.965661970323324,0.954526876206696,-5.953535479199886
1746522229305624600,6.12662451171875,7.537038011586666,1.5585191900387405,-7.387820679065585
1746522229315612700,6.13661279296875,8.449310677170754,1.7559487648040055,-8.90146758493781
1746522229325600500,6.1466005859375,9.038274348697065,1.3583075833395122,-9.5168662589252
1746522229335587600,6.156587646484375,9.462338549923896,1.0449357536673545,-9.218727946481108
1746522229345575700,6.16657568359375,9.273285466098784,1.4147311890900134,-8.509669576543569
1746522229355563500,6.1765634765625,7.268939448097348,1.6309508045211434,-8.049473154705762
1746522229365551400,6.18655126953125,3.360938906377554,0.5515373194515705,-7.879816845268011
1746522229375538700,6.19653857421875,-1.2225053204476832,-0.867854554925859,-7.500712314230203
1746522229385526500,6.206526611328125,-4.74183387683928,-2.180044530212879,-5.766107366228104
1746522229395514400,6.216514404296875,-7.424578922620415,-3.680035543437302,-3.7049554651603103
1746522229405502500,6.22650244140625,-9.96004491046667,-4.926487264400721,-2.1340311131872234
1746522229415489500,6.236489501953125,-12.333718161857128,-5.01261422675848,-1.6431892315864562
1746522229425477600,6.2464775390625,-14.302722232842445,-4.409068195389211,-2.20274034614563
1746522229435465500,6.256465576171875,-15.128828188580274,-3.451678623227775,-2.5920392312005163
1746522229445452500,6.26645263671875,-14.59663503654599,-1.9750743308097123,-2.0553981598466633
1746522229455440600,6.276440673828125,-13.466357917940616,-1.2409294504106043,-1.4396642625555396
1746522229465428500,6.286428466796875,-12.47604807295203,-0.8266790794506669,-1.2252076382089405
1746522229475416300,6.296416259765625,-11.751057389867306,-0.3049348407164216,-0.8355453997343778
1746522229485403600,6.306403564453125,-10.998661982506514,0.5639639625653624,-0.028922649991768412
1746522229495391500,6.3163916015625,-9.962083722817898,1.5725070911198853,1.0384119048565625
1746522229505379300,6.32637939453125,-8.366508475321531,2.2753449791073797,2.3110867390960452
1746522229515367400,6.336367431640625,-5.9487868233680725,2.7084464732706546,3.9328175875902174
1746522229525354500,6.3463544921875,-2.929245525446534,3.3838621013253927,5.162490315449237
1746522229535342300,6.35634228515625,-0.06489654280245304,4.2175107275277375,5.864014198228716
1746522229545330400,6.366330322265625,2.437868367925286,4.951333536365628,5.874523901805281
1746522229555317500,6.3763173828125,4.6281864548712965,5.559812055701017,5.569283648401498
1746522229565305300,6.386305419921875,6.4433227371811865,6.191967218700051,5.355094954276084
1746522229575293400,6.39629345703125,7.69342976578176,6.966999405282736,5.278088286963105
1746522229585281500,6.406281494140625,8.38308843872249,7.759270311436056,5.326209051531553
1746522229595268600,6.4162685546875,8.648353824612498,8.33872030468583,5.148904857689142
1746522229605256400,6.42625634765625,8.892045092076062,8.576673320758342,4.922914666610956
1746522229615244300,6.436244384765625,9.320877822878955,8.932976237401366,4.866987027683853
1746522229625231600,6.446231689453125,9.914992301297188,9.550074701043963,4.412036689805984
1746522229635219500,6.456219482421875,10.600622449374198,9.90685575659275,3.7622511775702234
1746522229645207300,6.466207275390625,10.905199270433187,9.779521170055865,3.2958082625582814
1746522229655195400,6.4761953125,10.40649103937149,9.710708915114402,2.520717623786628
1746522229665182500,6.486182373046875,9.081955084991455,9.451744675195217,1.7703658510826528
1746522229675170300,6.49617041015625,7.1937179106354705,8.706540056121348,1.8503398437686263
1746522229685158400,6.506158447265625,5.0046325803548095,7.849141136497258,3.23427418192625
1746522229695146500,6.516146484375,3.1233862877994776,6.8672752947270865,5.743437269258499
1746522229705133300,6.52613330078125,1.9895394940137863,5.830758409836888,8.498629127091169
1746522229715121400,6.536121337890625,1.9794944853395222,4.654781616330147,10.888860714572667
1746522229725109500,6.546109619140625,2.4793279210388657,3.3171921191096305,11.247363187086581
1746522229735096600,6.5560966796875,1.6609645422518253,1.371760646891594,8.812216937601566
1746522229745084400,6.56608447265625,-0.6345119552582502,-2.540080203643441,4.543038566678762
1746522229755072500,6.576072509765625,-4.017674383881688,-6.096296182927489,0.4681473808422684
1746522229765060400,6.586060302734375,-7.5157199137479065,-7.90667328801155,0.23022943608313798
1746522229775047400,6.59604736328125,-10.122705661928654,-8.892979158055782,3.019736235971749
1746522229785035500,6.606035400390625,-11.307723255503177,-9.379902843299508,6.011358722615242
1746522229795023400,6.6160234375,-11.146183617025613,-9.527729598245024,7.111950897052884
1746522229805010400,6.626010498046875,-10.244556264096499,-10.10447325514555,5.816783075976371
1746522229814998300,6.635998291015625,-8.942391716000436,-10.570122097170353,3.7476468981564044
1746522229824986400,6.645986328125,-7.683030536842346,-10.447588773435353,2.1182035755887627
1746522229834974500,6.655974365234375,-6.748089527854323,-9.499650920230149,1.0648875315889716
1746522229844961300,6.665961181640625,-5.947078850406408,-8.111354149079322,0.148142981287837
1746522229854949400,6.675949462890625,-5.066254631531239,-6.274000189742446,-1.043058561618626
1746522229864937500,6.6859375,-4.15663277271688,-4.112372775229812,-2.4899217957675455
1746522229874924500,6.695924560546875,-3.151890205489099,-1.964903065407276,-4.149471795046329
1746522229884912000,6.705912109375,-2.1907132237434386,0.10684534073770045,-5.814592287933826
1746522229894900000,6.71589990234375,-1.352062259209156,1.6647610119253395,-7.385867206910252
1746522229904887800,6.7258876953125,-0.6578758797109127,2.6623306187838316,-8.617737152552603
1746522229914875100,6.735875244140625,0.07402502115368842,3.4109482611715793,-9.40375075187683
1746522229924863000,6.745863037109375,0.9712418641641736,4.196200812995434,-10.419738643479347
1746522229934850800,6.755850830078125,1.7432886051952838,4.9276399415671825,-11.428026043707131
1746522229944839000,6.7658388671875,2.4126991476163266,5.480514647102356,-11.70072888612151
1746522229954826000,6.775825927734375,2.7781320039153097,5.824633204954862,-11.227501133275032
1746522229964813800,6.785813720703125,2.6072885305196047,6.0616556621789925,-10.749528231728076
1746522229974802000,6.795802001953125,2.5353365162476895,6.222880827879905,-10.709376254081725
1746522229984789000,6.8057890625,2.5867045921742915,6.357759253925085,-10.969589032757282
1746522229994777000,6.815777099609375,2.4355843486413358,6.312941038033366,-11.181074897664784
1746522230004765000,6.825764892578125,2.040713800933957,6.065617551547288,-11.472131727415322
1746522230014752000,6.835751953125,1.4832181575998662,5.650577783775329,-11.877650802648066
1746522230024740000,6.845739990234375,1.0763140577495098,5.296936195296049,-11.748525241041182
1746522230034728000,6.85572802734375,0.3094271836996078,4.611366252973675,-10.522040495568513
1746522230044715800,6.8657158203125,-1.547014922466874,3.0666151837855575,-8.828066248640418
1746522230054703000,6.875703125,-4.4397909581720825,0.6640589522600173,-6.720628104954957
1746522230064691000,6.88569091796875,-8.288227550289035,-2.624147310861945,-4.79949988386631
1746522230074678800,6.8956787109375,-12.080161918461322,-6.312972017693519,-2.8267531192213293
1746522230084666000,6.905666015625,-15.174810187554359,-11.344164688193798,-1.064193119584024
1746522230094654000,6.915654052734375,-17.27247220263481,-17.115895155000686,0.46960722426176066
1746522230104641800,6.925641845703125,-18.03710866740942,-20.231969658482072,4.327680828773975
1746522230114630000,6.9356298828125,-17.235350386464596,-19.87499045001268,9.767747730153799
1746522230124617000,6.945616943359375,-15.345214685010909,-17.927128535777328,13.253078739875555
1746522230134605000,6.95560498046875,-12.605135056114197,-14.17894855365753,13.545766385698318
1746522230144593000,6.965593017578125,-9.857250890946387,-11.318818650013208,10.466575213456153
1746522230154580000,6.975580078125,-8.04358351214528,-8.419852527496218,7.136517767554521
1746522230164568000,6.985568115234375,-6.796553991293907,-4.895351536902785,5.196603012931346
1746522230174556000,6.995555908203125,-5.814572414189577,-1.7485598235964774,4.117807075238227
1746522230184543700,7.005543701171875,-4.8466947657614945,1.0336527276307343,3.6262387790590522
1746522230194531000,7.015531005859375,-3.5404949707999824,3.4155800126254556,3.4485143139779564
1746522230204519000,7.025518798828125,-1.8584592912077902,5.735387818315625,3.7531203611314297
1746522230214506800,7.0355068359375,-0.043640696544945234,8.03256001382768,4.420360866037011
1746522230224494000,7.045494140625,1.8020950144290924,10.341337891459464,4.955964118775725
1746522230234482200,7.055482177734375,3.5844665067344903,12.413844422495364,5.086061155763268
1746522230244469800,7.0654697265625,5.2784407536625855,14.089918855595588,4.805910627691447
1746522230254457900,7.075457763671875,6.881689604526758,15.46511649119854,4.260796327024698
1746522230264445200,7.085445068359375,8.324507070416212,16.4196594417572,3.315712694206834
1746522230274433000,7.09543310546875,9.54679962489605,16.899418642199038,2.123888927748799
1746522230284420900,7.1054208984375,10.573100820720196,17.118630717444418,1.0052467173576354
1746522230294408000,7.115407958984375,11.213699402415752,17.221866635513305,-0.0021519173368811607
1746522230304396000,7.12539599609375,11.586284176295996,16.865053431260584,-0.871192759437859
1746522230314384000,7.1353837890625,11.893096209061145,15.810670634812116,-1.4002331465296447
1746522230324372000,7.1453720703125,11.765995431280135,14.439950436884164,-1.203839636813849
1746522230334359000,7.155359130859375,10.558073931980132,13.28566817331314,0.5188073084995151
1746522230344347000,7.165346923828125,8.619780056557058,12.04982055621147,3.3592008305385708
1746522230354335000,7.1753349609375,6.37651071614623,10.439375071841479,6.136514211547374
1746522230364322000,7.185322021484375,4.114387037661672,8.29690886939466,8.832518551874161
1746522230374310100,7.19531005859375,1.844084144374728,5.722353564697504,11.220030943524836
1746522230384297700,7.205297607421875,-0.3830979845881462,3.0016958446294066,12.311672334265708
1746522230394285000,7.21528515625,-2.8832518360346553,0.3878068929314613,11.455915921151638
1746522230404273200,7.225273193359375,-5.303024575299024,-2.440604514890909,9.078696375456452
1746522230414261000,7.235260986328125,-7.163438507705926,-5.6820718231916425,7.031261741834879
1746522230424248800,7.245248779296875,-7.958221688941121,-8.408838381528854,6.354687591394781
1746522230434236200,7.255236083984375,-7.829659021914005,-10.37010338269472,6.332958574667573
1746522230444224000,7.26522412109375,-7.063537871539593,-11.94898351597786,6.810801712355017
1746522230454211800,7.2752119140625,-6.24566198400855,-13.234295713472365,7.25397861033082
1746522230464199200,7.28519921875,-5.819882211035489,-13.907732734930514,7.184283727335929
1746522230474187000,7.29518701171875,-5.595163939589262,-13.9833675293684,6.849227596861124
1746522230484174800,7.3051748046875,-5.2422804760009045,-13.831084379535913,5.943247893941402
1746522230494163000,7.315162841796875,-4.63092260183692,-12.850499809747934,4.68090448410213
1746522230504150000,7.32514990234375,-3.941020767790079,-10.823971770554781,3.297185103869438
1746522230514137900,7.335137939453125,-3.198853908976912,-8.625870190125703,1.4202981755673885
1746522230524126000,7.3451259765625,-2.2361403653137386,-6.4421653838396065,-0.964965268112719
1746522230534113000,7.355113037109375,-1.2092664841681717,-4.133510840326547,-3.3407337382167577
1746522230544101000,7.36510107421875,-0.21181027455627918,-1.8573381782233713,-5.523359517094493
1746522230554089000,7.3750888671875,0.5335656094312667,0.13044599655568598,-7.505150588938593
1746522230564076000,7.385075927734375,1.0825919689752161,1.7884259700387715,-8.955362841254471
1746522230574064000,7.395064208984375,1.3778425971537827,3.110197720402479,-9.78069021383524
1746522230584052000,7.405052001953125,1.5908564022809266,4.126094426590204,-10.245127926504612
1746522230594039800,7.415039794921875,1.5321823872551321,5.013275905537605,-10.61059789994359
1746522230604027100,7.425027099609375,1.025409361550957,5.812307976388931,-11.042490602838992
1746522230614015000,7.435014892578125,0.3107940881386399,6.435402465575933,-11.432948887062071
1746522230624002800,7.4450029296875,-0.2993739917188883,7.14502431461513,-11.89623742969632
1746522230633990100,7.454990234375,-1.0109376224756241,7.740954318022728,-12.36221009684801
1746522230643978000,7.46497802734375,-1.6661678099833428,8.067951645204424,-12.176071439164875
1746522230653965800,7.4749658203125,-2.0732178941756487,7.932515000754594,-11.618851397901773
1746522230663954000,7.484953857421875,-1.9534172102749348,7.092146126386523,-10.481514423912763
1746522230673941000,7.49494091796875,-1.1099601606331766,5.8309302592724555,-8.759510598808527
1746522230683929000,7.50492919921875,-0.30198022869452834,4.498796104848385,-6.880588949808478
1746522230693917000,7.5149169921875,-0.2990218172803521,2.348279282414913,-5.934800383591652
1746522230703904000,7.524904052734375,-1.6536131565757095,-0.25215748251378534,-6.088980306956172
1746522230713892000,7.53489208984375,-4.491713745371997,-2.7089795572340485,-6.518674623024463
1746522230723880000,7.5448798828125,-8.231707790687679,-6.303439050194621,-6.844786399543285
1746522230733867000,7.554866943359375,-12.166900290715693,-11.476879214203358,-6.021335342228412
1746522230743855000,7.564855224609375,-16.15964072434902,-16.890180858254432,-2.306818560257554
1746522230753843000,7.574843017578125,-19.103094223368167,-20.27460468511581,4.93719219828844
1746522230763830800,7.584830810546875,-20.104525181829928,-20.512114633595942,12.91926881006956
1746522230773818000,7.594818115234375,-19.33658616837859,-18.614200114834308,17.993941725856065
1746522230783806000,7.604805908203125,-16.973908942776916,-15.82093834632635,18.160185596501826
1746522230793793800,7.614793701171875,-13.39376497541666,-13.162867138552665,14.11115804297924
1746522230803781000,7.624781005859375,-9.390047220695019,-9.53568377211988,10.218875879395007
1746522230813769000,7.63476904296875,-5.9609290965825315,-5.604907919490337,7.468513925936818
1746522230823757000,7.644757080078125,-3.5133974127769467,-1.841704555761814,5.5425312505543225
1746522230833745000,7.654744873046875,-1.9347543031200765,1.4694430224865673,4.1263194675177335
1746522230843732000,7.66473193359375,-1.0019102664113044,4.029330919405818,3.3906694432526825
1746522230853720000,7.674719970703125,-0.16169541356116532,6.589592910334468,3.389075452059507
1746522230863708000,7.6847080078125,1.290473087389022,9.360833401170373,3.8220191253125666
1746522230873695000,7.694695068359375,3.235861743378639,12.162101366001368,4.138756924286485
1746522230883683300,7.704683349609375,5.27776095470488,14.400656537371873,3.7485268958613274
1746522230893671400,7.71467138671875,7.204181436982751,15.909533160102367,2.637266027893126
1746522230903658500,7.724658447265625,8.851176490592955,16.908581607341766,0.8221624788090586
1746522230913646300,7.734646240234375,10.086148493903874,17.33903755543232,-1.0946911337003111
1746522230923634400,7.744634521484375,11.031242063593863,17.679013022130725,-2.478662150606513
1746522230933622500,7.75462255859375,11.944454640376566,17.78947479979992,-3.221019855816662
1746522230943609600,7.764609619140625,12.581415157830714,17.472771487617493,-3.730351187701523
1746522230953597400,7.774597412109375,12.800108177638053,16.862287473678588,-3.5254929242402313
1746522230963585500,7.78458544921875,12.965398108559846,15.86991192833185,-2.957379148519039
1746522230973572600,7.794572509765625,12.097485978227853,14.706350964283942,-1.1887784074127674
1746522230983560400,7.804560546875,9.85810312386155,13.079329608166217,1.7872639405220745
1746522230993548300,7.81454833984375,6.351363999930024,11.244562158191203,5.177286902564764
1746522231003535600,7.82453564453125,1.6592969013005494,8.66312001658976,8.334853107863664
1746522231013523500,7.8345234375,-3.481756950627267,5.112992417308688,11.571104142820834
1746522231023511300,7.84451123046875,-7.918893887159228,1.5160042826533318,14.356245733237266
1746522231033499400,7.85449951171875,-10.477383023196458,-1.5829618496388196,16.235088471782205
1746522231043486700,7.86448681640625,-10.180849223339557,-3.4932635562866925,16.75894517262578
1746522231053474300,7.874474365234375,-7.552669880482554,-4.008451797506213,15.306405938667059
1746522231063462400,7.88446240234375,-4.593995431455969,-4.638469363954663,10.880496206331252
1746522231073449700,7.89444970703125,-2.9431822808623314,-6.560017271760105,5.471208474096655
1746522231083437600,7.9044375,-2.9707112160399554,-8.727284737986325,2.3056898484885693
1746522231093425400,7.91442529296875,-4.4094533953145145,-9.891156667679548,2.9338495121106503
1746522231103412500,7.92441259765625,-6.253524387946724,-10.916423259758949,5.786988826215267
1746522231113400600,7.934400634765625,-7.204381927990913,-11.910669275152683,8.267807278072834
1746522231123388400,7.944388427734375,-6.8075248826414345,-12.22996435739398,9.213627992993592
1746522231133376500,7.95437646484375,-5.5629556144237515,-11.794710653632878,8.470927465695143
1746522231143363600,7.964363525390625,-3.9211943698137994,-10.900853934705257,6.379121190905571
1746522231153351400,7.974351318359375,-2.202754959192872,-9.41294586572349,3.533531561528146
1746522231163339500,7.984339599609375,-0.6477313561849296,-7.517454190194607,0.6295072788387537
1746522231173326600,7.99432666015625,0.49285146785750983,-5.314312862032652,-1.8323939988419413
1746522231183314700,8.004314697265626,0.9711302204832434,-2.848471614554524,-3.8951919135510917
1746522231193302300,8.01430224609375,0.28161767801493404,-0.4167261134237051,-5.891731641715765
1746522231203289600,8.02428955078125,-0.985769571210444,1.5349714334517717,-7.756546439430117
1746522231213277700,8.034277587890625,-2.30353924632594,3.3429239417374133,-9.156236126732825
1746522231223265500,8.044265625,-3.2175071715205905,4.928469378128647,-10.164455722421406
1746522231233253400,8.05425341796875,-3.7708348815202712,6.16100977037847,-11.021646552252768
1746522231243240700,8.06424072265625,-3.9222541079998012,7.1871928927808995,-11.879150685817002
1746522231253228500,8.074228515625,-3.4028727990046144,8.106293943080306,-12.575898440235852
1746522231263216400,8.08421630859375,-2.22928786907047,8.635250597411394,-12.93792090356946
1746522231273203700,8.09420361328125,-0.5998198504529894,8.63984493946433,-12.98637426109314
1746522231283191600,8.104191650390625,1.165149694544077,8.474694124752283,-12.635290540403126
1746522231293178600,8.1141787109375,2.8821625794932246,8.197365376102924,-12.028877136904
1746522231303166500,8.12416650390625,3.843827637016773,7.639758965870738,-11.842288397365808
1746522231313154600,8.134154541015626,4.254857584625483,6.8327031630396835,-11.533013189357519
1746522231323141600,8.1441416015625,3.984516502906382,5.837141388872266,-10.58914828467965
1746522231333129500,8.15412939453125,3.1248242116481064,4.428507932135463,-8.8357638174057
1746522231343117600,8.16411767578125,1.5684282973736523,2.5896348004072904,-6.4968754636704915
1746522231353104600,8.174104736328125,-1.3724872076004744,0.1239794308900833,-5.029104758310318
1746522231363092500,8.184092529296874,-5.540191409429908,-3.6229870837867257,-5.2232963740676635
1746522231373080600,8.19408056640625,-9.727650113043188,-7.752323853299021,-5.9093871253937476
1746522231383067600,8.204067626953124,-13.791574206924437,-11.8759089274168,-6.323109965348244
1746522231393055500,8.214055419921875,-17.93457417560816,-17.08872891565561,-5.122901816904545
1746522231403043600,8.224043701171874,-21.679491356539724,-20.754073962700367,0.39712066472172736
1746522231413031700,8.23403173828125,-23.392647858321666,-20.951637685239312,9.992138669341802
1746522231423018500,8.2440185546875,-21.56840180236101,-17.94430529602766,18.81149846443534
1746522231433006600,8.254006591796875,-17.250925556737183,-14.165453112268446,22.01712055237293
1746522231442994700,8.26399462890625,-11.811609181463718,-11.905310378468036,18.61115592483282
1746522231452981500,8.2739814453125,-6.517997162154317,-9.826467630147933,12.965600353133677
1746522231462969600,8.283969482421876,-2.2549019105374812,-6.4492275773108005,8.632129835042356
1746522231472957700,8.293957763671875,0.5430918549284338,-2.5296634390473365,5.664516292756796
1746522231482944500,8.303944580078126,2.0034978767395017,0.6080985801070928,3.6508114947795867
1746522231492932600,8.3139326171875,2.5381694015860554,3.171726248076558,2.7313106315076348
1746522231502920400,8.32392041015625,2.8643127422869203,5.906970711901784,2.784673680643737
1746522231512908500,8.333908447265625,3.3564152914732692,8.754362714526057,2.9378350746154784
1746522231522895600,8.3438955078125,4.103513176947832,11.146755279433727,2.7501287292242047
1746522231532883500,8.353883544921874,5.1661488379567855,12.995198203539848,2.3465027742616833
1746522231542871600,8.36387158203125,6.339874053144454,14.284483980840443,1.7272241901010275
1746522231552858600,8.373858642578124,7.346766199621558,15.114429076349735,0.9387121980898082
1746522231562846500,8.383846435546875,8.035238877648114,15.573851591205596,0.05224427423924207
1746522231572834600,8.39383447265625,8.42660141723454,15.991483129036425,-0.5933649752251804
1746522231582821600,8.403821533203125,8.641097569873928,16.42460800407529,-0.9900498788781463
1746522231592809500,8.4138095703125,8.707561215862631,16.664474744814633,-1.3352671917527914
1746522231602797600,8.423797607421875,8.850099216750264,16.626556809830664,-1.643802248918265
1746522231612785700,8.43378564453125,8.93341813594997,16.24709805852771,-1.8484565142400562
1746522231622772500,8.4437724609375,8.547914843785762,15.356886418104171,-1.4653874634854496
1746522231632760600,8.453760498046876,7.773783989956975,14.247383207458256,-0.2341188447371125
1746522231642748700,8.463748779296875,6.580474368855357,13.381202430963516,1.8383786262094974
1746522231652735500,8.473735595703126,4.8116181916832925,12.554894230651854,4.300300946678221
1746522231662723600,8.4837236328125,2.800491135239601,11.036701498043536,6.516501370638609
1746522231672711700,8.493711669921876,0.897796980985999,8.698814430305362,9.10947203747034
1746522231682698500,8.503698486328124,-0.8074526931941509,5.481190938928723,12.184153038811683
1746522231692686600,8.5136865234375,-1.8564647563897072,1.758329522460699,14.654943433129787
1746522231702674400,8.52367431640625,-2.030491682127118,-1.5773200443595647,15.280321064817905
1746522231712661500,8.53366162109375,-2.044874427744746,-4.3280543382614844,14.033213218033312
1746522231722649600,8.543649658203124,-2.6731924967989324,-7.9245695947080845,12.338284446859358
1746522231732637400,8.553637451171875,-5.075720963534713,-10.99171201723814,11.284057133233546
1746522231742625500,8.56362548828125,-8.652019361382722,-12.653615301644802,12.063645667946338
1746522231752612600,8.573612548828125,-11.914520105361937,-13.272272100645303,13.04183720511794
1746522231762600400,8.583600341796876,-13.7731056532979,-13.83553025302887,12.88221246035099
1746522231772588500,8.593588623046875,-13.915841222584246,-14.50314309837818,11.891999645996092
1746522231782575600,8.60357568359375,-12.428887677848339,-14.662371537303924,9.72548329039812
1746522231792563500,8.6135634765625,-9.971716643559931,-14.009730635637045,6.816603676632046
1746522231802551600,8.623551513671876,-7.44812463338077,-12.365683325916528,3.7304637081652876
1746522231812538400,8.633538330078125,-4.969768187722563,-10.277311701750754,0.7732382889032363
1746522231822526500,8.6435263671875,-2.3496061471045016,-7.9965219012409445,-1.372437523239851
1746522231832514600,8.6535146484375,-0.052565907409042115,-5.482657504349946,-2.8352526520192622
1746522231842502700,8.663502685546876,1.8619551704995334,-3.1538562448650596,-4.254035162326693
1746522231852489500,8.673489501953124,3.2711095823705194,-0.9540566283464431,-5.723707317394018
1746522231862477600,8.6834775390625,4.058123298648,1.092052309629321,-7.195187398666143
1746522231872465700,8.693465576171874,3.9181267989367243,2.882475006443262,-8.658014217883348
1746522231882453200,8.703453369140625,3.103552875560522,4.2187370544522995,-9.81354969638586
1746522231892441000,8.713441162109374,2.2054951978117225,5.428967999738455,-10.570523079186676
1746522231902429200,8.72342919921875,1.609087201628834,6.542580983790755,-11.135768605995178
1746522231912416000,8.733416015625,1.3243607439436018,7.4982000391483306,-11.718333516395091
1746522231922404000,8.743404052734375,1.1677379574716091,8.000100344249606,-12.6410106716156
1746522231932392200,8.75339208984375,1.3185744156271217,8.035240631213783,-13.575335010010003
1746522231942379000,8.76337890625,2.351514172682911,7.581872594091296,-13.995423877865075
1746522231952367000,8.7733671875,3.6313895859509704,6.996202703413367,-14.058756824612617
1746522231962355200,8.783355224609375,4.343166274936497,6.167741708981991,-13.823491440188883
1746522231972343000,8.793343017578126,4.065769137226045,5.487137864634394,-13.443793034911154
1746522231982330000,8.803330078125,2.043901491059363,5.0922377985715865,-13.724637098205088
1746522231992318200,8.813318115234376,-1.1236965711712836,4.098230852630734,-14.792432333934306
1746522232002306000,8.82330615234375,-4.245568947276473,2.733124987453222,-14.48227683596015
1746522232012293000,8.833293212890625,-6.587764525863528,0.4263765698224306,-11.810142031520604
1746522232022281200,8.84328125,-7.642388729852438,-2.2071996636420486,-7.838274290046096
1746522232032269000,8.85326904296875,-7.812858109238744,-5.301600679975747,-4.137821397002041
1746522232042256100,8.863256103515624,-9.136375826486944,-9.002490503132343,-3.1208480014935134
1746522232052244200,8.873244140625,-13.439806595623493,-12.034199793231487,-4.622265248128771
1746522232062232000,8.883232177734374,-18.77268036574125,-14.296491229498386,-6.116695412355661
1746522232072219100,8.89321923828125,-24.147066880464553,-16.06226872987747,-4.992120889306068
1746522232082207200,8.903207275390624,-28.47246807386875,-17.49610793954134,0.11035071851015091
1746522232092195000,8.913195068359375,-28.785533321809766,-16.83357809654474,8.760694840157031
1746522232102183200,8.92318310546875,-24.761488233852386,-14.020147984755038,17.117742244172096
1746522232112170000,8.933169921875,-17.764543772161005,-10.755922901201247,20.118261446237565
1746522232122158000,8.943157958984376,-10.200888971805572,-7.8268597465842955,17.269307601124048
1746522232132146200,8.953146240234375,-2.8129256693989038,-5.524567139318585,11.774840416514873
1746522232142133000,8.963133056640626,3.4962545547962187,-2.8004396973133083,7.247185296928882
1746522232152121000,8.97312109375,6.732776807910204,-0.10014847344756125,4.796632803997397
1746522232162109200,8.983109130859376,6.399529188162088,2.0556571030437945,3.944340267601609
1746522232172096000,8.993095947265624,4.102106817281246,4.051254581922293,4.198962094402313
1746522232182084000,9.003083984375,1.7588731278181076,6.3462967796683305,5.00901357191801
1746522232192072200,9.013072265625,0.3791325880885124,9.001025691276789,5.810041785022616
1746522232202059000,9.02305908203125,-0.13840656363870948,11.589361099523305,5.876418921771645
1746522232212047000,9.033047119140624,-0.31125673721432684,13.835976827752589,5.073420285376906
1746522232222035200,9.04303515625,-0.23187983363866804,15.472067625510691,4.090675907206535
1746522232232023000,9.05302294921875,-0.027402381621929817,16.57533515663743,3.020235709926486
1746522232242010000,9.063010009765625,0.12369769133925437,17.18084722738266,2.0782050349384544
1746522232251998200,9.072998291015624,0.6434609853893518,17.612699013745782,1.409477067954093
1746522232261986000,9.082986083984375,1.5686317109912633,17.9788809348464,1.1203482836566865
1746522232271973000,9.09297314453125,2.9328824206441637,17.952787877690792,0.5051376795873046
1746522232281961200,9.102961181640625,4.450714503246545,17.580405348384378,-0.2039354495279491
1746522232291949000,9.112948974609376,5.7011757521122695,16.646885312110186,-0.16417977772280573
1746522232301936000,9.12293603515625,6.5104246810734265,15.41776320387125,0.7940745945744216
1746522232311924000,9.132924072265626,6.70066902050972,14.429196403157711,2.9337054274648424
1746522232321912000,9.142912109375,6.388520302891731,13.310746500468253,5.786762031722068
1746522232331899100,9.152899169921875,5.388793810260296,11.565936969316006,9.06124255183041
1746522232341887000,9.162886962890624,3.891457987719774,9.330168213793636,12.291540231341124
1746522232351875000,9.172875,1.7874159162133931,6.024871115139127,14.184672192001342
1746522232361862100,9.182862060546874,0.11356997281759977,1.6478233211278914,14.001228180229663
1746522232371850000,9.19285009765625,-1.5118880795061587,-3.0837925285577774,12.903271614992617
1746522232381838000,9.202838134765624,-4.149336478228867,-8.145761445593834,10.646017588371038
1746522232391826200,9.212826171875,-7.549004928234219,-12.257983998697995,10.101609097886085
1746522232401813000,9.22281298828125,-10.519514191961289,-14.805564202708005,12.308735696291922
1746522232411801000,9.232801025390625,-12.34206981061697,-16.926542795968054,14.875130490887164
1746522232421789200,9.2427890625,-12.6314210054934,-18.37495413634181,16.200143415129183
1746522232431776000,9.25277587890625,-11.797781731641292,-18.771390910452602,15.854828925490379
1746522232441764000,9.26276416015625,-9.714420044592023,-18.37528965190649,13.257742055511473
1746522232451752200,9.272752197265625,-6.343627268198132,-16.41289301636219,9.051306264227629
1746522232461739000,9.282739013671875,-2.3365233781695363,-13.673210862350462,4.598500633920729
1746522232471727000,9.29272705078125,1.3773837474703787,-10.354054749691485,1.1677321122527122
1746522232481715200,9.302715087890626,4.390244544714689,-6.837582751774788,-1.6806863108098506
1746522232491702000,9.312701904296874,5.968123392000794,-3.868378140905499,-3.842195651900768
1746522232501690000,9.322690185546875,5.952207445466518,-1.6188099926114081,-4.7433448659241195
1746522232511678000,9.332677978515624,4.78620084183216,0.4530272608608007,-4.526184462511539
1746522232521665000,9.3426650390625,2.800404041478038,2.6314193476915357,-4.538472573937476
1746522232531653000,9.352653076171874,0.5359796117704362,4.834880993849039,-5.708445450854301
1746522232541641000,9.362640869140625,-1.5449550673276184,7.222866263708472,-8.130372737804056
1746522232551629000,9.372629150390624,-3.838884919917583,9.442274836060404,-11.051738908177613
1746522232561616100,9.3826162109375,-5.758470003217458,10.094545735371112,-13.096826686412095
1746522232571604000,9.39260400390625,-6.288049173361062,9.539628125831484,-13.241086688786744
1746522232581592000,9.402592041015625,-5.749722048616409,8.99044876768291,-12.185467044019699
1746522232591579100,9.4125791015625,-4.5902702734529965,8.94262727832198,-11.3287543530941
1746522232601567000,9.42256689453125,-3.1320874806493517,8.521339556071162,-12.377888142973184
1746522232611555000,9.43255517578125,-1.4981290187448262,7.768518032252788,-14.204323817932606
1746522232621542000,9.4425419921875,-0.31252938749864695,7.697222728323936,-15.22228973160982
1746522232631530000,9.452530029296875,0.026305969253927468,7.944401837903261,-15.425621516156196
1746522232641518000,9.46251806640625,-0.8539987557917833,7.7105398905366656,-15.199861626702546
1746522232651505000,9.4725048828125,-2.4767957722127436,6.875636880359053,-14.048113850045203
1746522232661493000,9.482492919921874,-3.9408091708660122,5.167254168850183,-11.924039628857374
1746522232671481000,9.492481201171875,-4.708302194115519,2.952188594138622,-9.241153128778935
1746522232681469200,9.50246923828125,-4.721014960694313,0.3856049989730119,-7.227694999039173
1746522232691456000,9.5124560546875,-4.4137557686835525,-2.2434283303648233,-6.568771656101942
1746522232701444000,9.522444091796874,-5.4143800869375465,-4.955142865520715,-7.99513132366538
1746522232711432000,9.532431884765625,-9.027937079077958,-8.60905174179375,-10.69155418166518
1746522232721419000,9.5424189453125,-13.830033409178256,-13.941324038887023,-11.542363201504944
1746522232731407000,9.552406982421875,-19.58895817042589,-19.94308958824873,-8.482752343523503
1746522232741395000,9.56239501953125,-25.318558637511728,-25.096234567725656,0.43036856206804514
1746522232751382000,9.572382080078125,-27.576272098338602,-25.9158955851078,12.218358090752362
1746522232761370000,9.5823701171875,-25.13832715804577,-22.475591465592384,20.530648653674124
1746522232771358000,9.59235791015625,-19.922678083860873,-18.6986588517189,21.311583926820752
1746522232781345000,9.602344970703125,-13.25416711963415,-14.893461097347735,17.142734062087534
1746522232791333000,9.6123330078125,-7.5695502881348125,-10.579703579986095,13.308688983416557
1746522232801321000,9.622321044921875,-3.88460213047564,-5.773669910436868,11.542041714465617
1746522232811308000,9.63230810546875,-1.770004178163409,-1.1345733544945715,10.475790785568952
1746522232821295900,9.6422958984375,-0.4555810004642233,3.3814860198438166,9.624972413378954
1746522232831284000,9.652283935546874,1.1962719780385493,7.584591205400228,9.193294814538955
1746522232841272000,9.66227197265625,3.5799931607127187,11.108187356108427,9.10645239738822
1746522232851259000,9.6722587890625,6.028849955642223,14.200377126133441,8.858701625400782
1746522232861247000,9.6822470703125,7.544884633433818,16.43458111655712,8.278392384973168
1746522232871235000,9.692235107421874,8.03142662588358,17.983699733304977,7.026959660726785
1746522232881222000,9.702221923828125,7.734850740450621,19.204229369765518,5.5001095744103194
1746522232891209700,9.712209716796876,7.128834811836481,20.445675537526608,4.069059703204036
1746522232901197800,9.72219775390625,6.406172863960266,21.67591408257484,2.5624951568081973
1746522232911185000,9.732184814453126,6.1694473438560955,22.58238829101324,0.5612041424632073
1746522232921172700,9.7421728515625,6.250476106292009,22.93502099471092,-1.8140782976895569
1746522232931160800,9.752160888671876,6.210927355235815,22.787300622749328,-4.021180930697918
1746522232941148000,9.76214794921875,5.596164641064405,22.118768908989427,-4.516310718750954
1746522232951136000,9.772135986328125,4.6061154928386205,21.033304745578764,-2.434617549435794
1746522232961123800,9.782123779296874,3.5252550238311287,19.627185902011394,1.2574997692003846
1746522232971111000,9.79211083984375,2.5992168677449223,17.521928609496353,5.716208486071229
1746522232981099000,9.80209912109375,2.505745972365141,14.918319644272326,9.607509821924566
1746522232991086800,9.8120869140625,3.0844296574175356,12.430893756973743,12.221799755638838
1746522233001074700,9.82207470703125,4.112337119394541,9.797228676182032,13.1214350579679
1746522233011062000,9.83206201171875,5.11024691799283,7.063313415133953,12.748487880516052
1746522233021049900,9.8420498046875,5.391067600411176,4.50883760639131,12.042682374894618
1746522233031037700,9.85203759765625,4.770449145948887,2.6855624412894246,11.590385181874035
1746522233041025000,9.86202490234375,1.920521487367153,0.4450274942785501,12.18300269973278
1746522233051012900,9.872012939453125,-2.8622967262893915,-3.5180256570994852,14.63865631519556
1746522233061000700,9.882000732421876,-6.682996001175046,-8.121017464959621,18.569053982162476
1746522233070988000,9.891988037109375,-8.433888067111372,-12.172393627434968,21.5528278011322
1746522233080976000,9.901975830078126,-8.670986512181162,-15.612726973044872,21.15448782374859
1746522233090964000,9.9119638671875,-7.926075907617807,-17.916954347765444,17.2265369654119
1746522233100950800,9.92195068359375,-7.773202390676737,-18.69284168987274,12.425890249598025
1746522233110939000,9.93193896484375,-8.909354538795352,-18.57588587400913,8.924412991717457
1746522233120927000,9.941927001953125,-10.773138239896296,-17.398630731129646,6.946899451062083
1746522233130913800,9.951913818359374,-12.289914091444015,-15.541024841880798,5.201545730030537
1746522233140902000,9.96190185546875,-13.079309734421967,-13.281235159301756,3.165217012313008
1746522233150890000,9.971889892578124,-13.18669458886385,-10.99210130881667,0.4972165311992168
1746522233160877800,9.9818779296875,-12.034073536503314,-8.67997821241021,-2.7622183954685924
1746522233170865000,9.991864990234374,-9.89376480435133,-6.12007394887805,-5.914125259831548
1746522233180853000,10.00185302734375,-7.432322668614983,-3.6076427996605633,-8.7564856980294
1746522233190840800,10.0118408203125,-5.219755340459942,-1.5445868185371159,-11.175927597904204
1746522233200828000,10.021827880859375,-3.4412247414916752,0.034625323179364204,-12.847088539999723
1746522233210816000,10.03181591796875,-2.17756265026927,1.458708862504363,-13.635651823806763
1746522233220803800,10.041803955078125,-1.512098507386446,2.4457044683784246,-13.80617088755369
1746522233230791000,10.051791015625,-1.2145540691822767,3.0748546043425797,-13.823206193506717
1746522233240779000,10.061779052734375,-0.9886784443944692,4.085274924945831,-13.808870209640263
1746522233250766800,10.071766845703126,-0.8037041543155908,5.229424501559138,-14.086015418416261
1746522233260754000,10.08175390625,-1.0411427911251783,6.079608082976937,-14.814153167355059
1746522233270742000,10.091741943359375,-1.5378963809877633,6.601372779977321,-15.758579213047026
1746522233280729900,10.101729736328124,-2.097673120996356,6.278185950994491,-16.40017031291127
1746522233290717000,10.111717041015625,-2.03668001537323,4.874970427653193,-15.727382110750675
1746522233300704800,10.121704833984374,-1.5475778170466423,2.7548534196585415,-13.381423380237816
1746522233310692900,10.13169287109375,-1.1604407131355254,0.956813233578205,-10.217966363334655
1746522233320681000,10.141680908203124,-1.0607902523379773,-0.6048299336999654,-7.490270999714732
1746522233330667800,10.151667724609375,-1.9964502963155506,-2.336832005727291,-6.249254455542564
1746522233340655900,10.16165576171875,-4.216276801818609,-4.539449017754197,-6.1218631703823805
1746522233350644000,10.17164404296875,-7.0884653920471665,-7.039965272772312,-5.24034980019927
1746522233360630800,10.181630859375,-9.838262112838029,-9.35024595618248,-2.599096456235647
1746522233370619000,10.191618896484375,-12.3487614172101,-12.098673726707696,0.4951864866763353
1746522233380607000,10.20160693359375,-14.686792861855029,-16.26162108939886,3.2650930985599755
1746522233390593800,10.21159375,-16.393548848944903,-20.104999813604355,7.430368027415871
1746522233400582000,10.221581787109375,-17.647606660997866,-22.24525243165493,13.868116179335116
1746522233410570000,10.231570068359375,-17.68750846327543,-21.322813761365413,20.98245134117603
1746522233420556800,10.241556884765625,-15.417570311647653,-17.61794802031517,25.25245856413841
1746522233430545000,10.251544921875,-11.39108309123516,-14.276762446677685,24.619463443183896
1746522233440533000,10.261532958984375,-6.214346223768591,-10.80690723850727,21.368782900857923
1746522233450520800,10.271520751953124,-1.2360931162953377,-6.509314089483023,16.940590026021003
1746522233460508000,10.2815078125,2.3561060305178163,-2.616151635932922,12.373248208212852
1746522233470496000,10.29149609375,4.011287313193082,0.5607207428604364,8.613703951513767
1746522233480483800,10.30148388671875,3.91751948069334,3.09753288461864,5.958778056028485
1746522233490471000,10.311470947265626,2.6740987979888913,5.23770191603899,4.570219126810133
1746522233500458800,10.321458740234375,1.6329063225030898,7.321212071648239,4.303930827613175
1746522233510446800,10.33144677734375,1.7141523809514938,9.940465765249728,4.492765300251543
1746522233520434000,10.341433837890625,2.4052339263021945,13.171471300768852,4.431874485959113
1746522233530421800,10.351421875,3.311185572171211,16.292257050681112,3.4846991415590045
1746522233540409900,10.361409912109375,3.8830639611229296,19.367333188819885,1.810280220580846
1746522233550397000,10.37139697265625,4.19326183693409,22.36645655261278,-0.6171474173508584
1746522233560384800,10.381384765625,4.1712382211744785,24.26554245324135,-3.8651474884212016
1746522233570372900,10.391372802734375,3.9755329859837887,25.27059043315649,-6.925821591719985
1746522233580360000,10.40135986328125,3.8827719924390314,25.550534332740305,-9.366778573310375
1746522233590347800,10.41134765625,3.659408642733097,24.929811833381653,-10.622990933048724
1746522233600336000,10.4213359375,3.04570391318202,23.70099952174425,-9.373845442956686
1746522233610324000,10.431323974609375,2.1445159745834768,22.195369333589074,-5.10698177871704
1746522233620310800,10.441310791015624,2.1555722061268985,19.993985078227517,0.06064034666270017
1746522233630299000,10.451298828125,3.1045547460794447,17.48635577633381,4.3030932077452535
1746522233640287000,10.461286865234374,4.432058902615308,14.462331780040262,7.915133657842874
1746522233650273800,10.471273681640625,5.289421581882238,10.937989779400825,10.85198322855234
1746522233660262000,10.481261962890626,5.292419010132551,7.4817615300446745,13.06800391203165
1746522233670250000,10.49125,4.347285692954063,3.5951036360830066,15.311002618807553
1746522233680236800,10.50123681640625,2.6699849329292773,-0.8251134375691414,17.280578352200983
1746522233690225000,10.511224853515625,1.5232242970347403,-4.803721885475516,17.13626691190004
1746522233700212700,10.521212646484376,1.3226783438146115,-7.8664079131186,14.688625922501087
1746522233710199800,10.53119970703125,1.7557038501322269,-10.957342130124568,12.288976518332957
1746522233720188000,10.54118798828125,1.8298598041892051,-12.973789504808186,12.193718155014514
1746522233730175700,10.55117578125,0.5302841400751843,-13.75246150919795,14.189161320114135
1746522233740163800,10.561163818359375,-1.6188134997427464,-15.152887109559774,16.558614323461054
1746522233750151000,10.57115087890625,-3.4839363404929635,-16.867555184948444,18.592722442519662
1746522233760138800,10.581138671875,-4.669260223537683,-17.668986133635045,18.76901424444914
1746522233770126800,10.591126953125,-5.0569233240842815,-16.759977438282966,15.874459508633613
1746522233780114000,10.601114013671875,-4.269648326522112,-14.6529420301795,10.086841736865043
1746522233790101800,10.611101806640624,-2.8108558773875236,-11.75981352777481,3.5195325545310974
1746522233800089900,10.62108984375,-2.004064862972498,-8.762591029167174,-2.1067805565595625
1746522233810077000,10.631076904296876,-2.452197337529063,-5.612635883393883,-5.785818613392114
1746522233820064800,10.641064697265625,-3.765817930141091,-2.4886481225699186,-8.033825503718852
1746522233830052900,10.651052978515626,-5.078574599400162,0.1840320407927036,-9.984875400340556
1746522233840041000,10.661041015625,-5.9719911733448505,2.3674732277065513,-12.001984453803301
1746522233850027800,10.67102783203125,-6.854582401892542,3.996327059948444,-13.902418261909483
1746522233860015900,10.681015869140625,-8.031172943383455,5.03596295364201,-15.39101782028675
1746522233870004000,10.69100390625,-8.941244299530982,5.72215658082068,-16.202532940614223
1746522233879990000,10.700989990234374,-9.046385758960247,6.681985947349667,-16.54901881211996
1746522233889978000,10.71097802734375,-8.543059220448136,7.386130241760611,-16.84448761309385
1746522233899966000,10.720966064453124,-7.308178987073898,7.918062697032093,-17.278455368697642
1746522233909954000,10.7309541015625,-5.649542010986805,8.104453868171571,-17.947233750694988
1746522233919941000,10.740941162109374,-3.5903181553721426,7.43585434987247,-18.815601808100936
1746522233929929000,10.750928955078125,-1.4165554819077253,5.948823063725233,-19.141852700829507
1746522233939917000,10.7609169921875,0.199958508720994,3.9882840387463565,-17.38590335150361
1746522233949904000,10.77090380859375,0.14647358677089214,2.3978081602156163,-13.516959977930783
1746522233959892000,10.78089208984375,-1.818351152703166,1.6049655916541814,-8.622719032618402
1746522233969880000,10.790880126953125,-5.317365235340595,0.20628245104551315,-5.543182407939434
1746522233979867000,10.800866943359376,-9.177853499779104,-2.0586714824289083,-4.953323248878121
1746522233989855000,10.81085498046875,-12.895230931878089,-4.6245852155089375,-4.874113226301968
1746522233999843000,10.820843017578126,-16.165420476794242,-8.017410375490785,-4.839716158920527
1746522234009831200,10.8308310546875,-18.942222108888625,-12.25590426981449,-4.479634308260679
1746522234019818000,10.84081787109375,-21.062084265339372,-17.576902893221376,-2.064964737354219
1746522234029806000,10.85080615234375,-22.356681008529662,-23.041771058380604,4.792892448425293
1746522234039794000,10.8607939453125,-22.218782942402363,-26.01453716112375,15.86914854274392
1746522234049781000,10.870781005859374,-19.421863235908745,-25.47706460738182,26.403363460230825
1746522234059769000,10.88076904296875,-14.286212996590137,-21.066655226516723,31.24291478397846
1746522234069757000,10.8907568359375,-8.59543881150484,-15.803327870833872,28.670562542283534
1746522234079744000,10.900743896484375,-3.21390885476768,-10.93005547927022,22.31466557509899
1746522234089732000,10.910732177734374,1.1028332313627005,-4.647386829903722,16.821240008497238
1746522234099720000,10.920719970703125,3.6645553579717873,0.6268202317118644,12.518287962788342
1746522234109708000,10.9307080078125,3.765945355913043,4.260333970209956,9.339911024650931
1746522234119695000,10.940695068359375,2.2510791373789307,7.2870637183308595,7.440904034477472
1746522234129683000,10.950682861328126,0.8343938916116952,10.286220984393358,6.64596712398529
1746522234139671000,10.960671142578125,-0.13924831169247626,13.171020049870014,6.425446888750791
1746522234149658000,10.970658203125,-0.2742214120174758,15.388130282151698,6.4320402956664555
1746522234159646000,10.98064599609375,0.7353969262868165,17.25490381271839,6.358001830509305
1746522234169634000,10.990634033203126,2.4653590169191357,18.990131861054895,5.935619298759103
1746522234179620900,11.000620849609374,4.641403079319,20.237218665051458,4.87025918122232
1746522234189609000,11.01060888671875,6.983434991776943,21.413281383275983,3.183562524081766
1746522234199597000,11.02059716796875,9.14097075306177,22.241598000800607,0.7980287390276789
1746522234209585200,11.030585205078125,10.71533837735653,22.08045466816425,-1.9719626285299658
1746522234219572000,11.040572021484374,11.774033776307105,21.326685634362697,-4.245441521504521
1746522234229560000,11.05056005859375,12.167076816326379,20.672332083559034,-5.253379962164163
1746522234239548000,11.0605478515625,11.259980676597356,19.869007283949852,-4.685468138755858
1746522234249535000,11.070534912109375,9.398089072853326,18.40261020503044,-2.7374773374438286
1746522234259523000,11.080523193359374,7.445747382855415,16.76119908903241,0.35480420251786704
1746522234269511000,11.090510986328125,5.6374459150016305,15.150886875653265,4.159089810480177
1746522234279498000,11.100498046875,3.964332669794559,13.403923965859413,7.665701216378808
1746522234289486000,11.110486083984375,2.4933985319674012,11.544884828937054,9.789854348021745
1746522234299474000,11.120473876953126,1.2801608060806988,9.53594213079512,10.77919154858589
1746522234309462000,11.1304619140625,-0.10058335773348807,7.148152675768733,11.114195072090626
1746522234319449000,11.140448974609376,-2.192866602385044,3.8793630607783793,10.693797576677799
1746522234329437000,11.15043701171875,-4.407490863069891,-0.07468494636714458,9.750314949315786
1746522234339425000,11.160425048828126,-5.95936550052762,-3.910831965753436,8.60687205966711
1746522234349412000,11.170412109375,-6.851662715053558,-6.927225028777122,7.555051807183027
1746522234359400000,11.18039990234375,-7.0242287744581695,-9.971500370460747,7.244259180349111
1746522234369388000,11.190387939453124,-6.923743031880259,-13.49514562100768,8.249619294953346
1746522234379375000,11.200375,-7.553876333662867,-16.206051762390135,10.67165705654025
1746522234389363000,11.210363037109374,-9.18950243651867,-17.34908665575981,13.585661173713206
1746522234399351000,11.22035107421875,-10.80234095350504,-17.196131305754182,14.743884283864498
1746522234409339100,11.230339111328124,-11.637696383625268,-16.804987961876392,12.696982149684429
1746522234419326000,11.240325927734375,-11.831111169791221,-16.954417475843428,8.888174972644448
1746522234429314000,11.25031396484375,-11.420354778426885,-16.277876643151043,5.745640332260727
1746522234439302000,11.260302001953125,-10.141333205509186,-14.449607907545566,3.3531174189716575
1746522234449289000,11.2702890625,-8.402425591877103,-12.208005039042234,0.9899000951439142
1746522234459277000,11.280277099609375,-6.812492149659991,-9.92697733812332,-1.3092518760085106
1746522234469265000,11.290264892578126,-5.694066796889901,-7.406473357087373,-3.28563728941679
1746522234479252200,11.300252197265625,-4.937201550638675,-4.551063467702269,-4.880900402224063
1746522234489240000,11.310239990234376,-4.350507577610015,-1.7081354587495325,-6.39984190737307
1746522234499228000,11.320227783203125,-3.8622570276767014,0.9178156866639852,-7.931492671969533
1746522234509216000,11.330216064453126,-3.6051883922457693,3.0374931341975926,-9.4196783888489
1746522234519203000,11.340203125,-3.2270044831842184,4.801714052784442,-10.770528934180735
1746522234529191000,11.35019091796875,-2.5209014559209346,6.359721493908762,-11.795444813126325
1746522234539179000,11.360178955078124,-0.49380062180850653,7.285293201526999,-12.423248210656642
1746522234549166000,11.370166015625,2.006085555145144,7.97776751641035,-13.108819906544685
1746522234559154000,11.38015380859375,3.360155062523484,8.874562042355537,-13.887345780462026
1746522234569142000,11.39014208984375,4.123053743720054,9.191765705275534,-14.52054548407793
1746522234579129000,11.400129150390624,4.191512947440147,9.295886004963517,-14.71211902629137
1746522234589117000,11.410116943359375,3.7828982442796226,8.9035765399158,-14.629046775329112
1746522234599105000,11.42010498046875,3.2689480204224584,8.417695057201385,-13.913257635831831
1746522234609093000,11.430093017578125,2.47172972099483,7.796782003706693,-12.200804898405075
1746522234619080200,11.440080078125,1.1543617585480213,6.414861197328567,-9.921443084871768
1746522234629068000,11.450068115234375,-1.5714701492875813,4.727560436815023,-7.534904506689309
1746522234639056000,11.460055908203126,-5.874809148487448,2.5886276691913603,-5.837907697069644
1746522234649043200,11.470043212890625,-10.03154947323203,-0.38267771334946155,-4.973293439239264
1746522234659031000,11.480031005859376,-12.34296646719575,-3.343888987377286,-4.326107003585994
1746522234669019000,11.490018798828125,-12.674852150940895,-6.007129706743359,-3.8518577987372873
1746522234679006200,11.500006103515625,-13.373659760499,-10.380402658390999,-3.806721602937579
1746522234688994000,11.509994140625,-15.029914225363731,-17.695418213486672,-2.259936105312407
1746522234698982000,11.51998193359375,-16.39619907119274,-24.029208562803266,4.386473501743376
1746522234708969200,11.52996923828125,-16.82818997376561,-26.763653400683403,15.721819800448417
1746522234718957300,11.539957275390625,-15.58033627704978,-23.982327569162845,25.612341677355765
1746522234728945000,11.54994482421875,-12.276499314075707,-20.023884541928766,27.62713953126669
1746522234738933000,11.55993310546875,-7.128716738414764,-16.726816342437267,22.721371229767797
1746522234748920300,11.56992041015625,-1.6315174984931944,-12.425171287673711,16.619575280380246
1746522234758908200,11.579908203125,2.274080073738098,-7.393725519195199,11.519177556228637
1746522234768896000,11.58989599609375,3.672034315550327,-3.0565579001516103,7.62587949360013
1746522234778883000,11.599883056640625,3.042706484931707,0.3408306222230196,4.829139819848537
1746522234788871200,11.60987109375,1.6957552851259707,3.37491540928185,2.835836004865169
1746522234798859000,11.61985888671875,0.3816857797026634,6.568161415249109,1.5990575366541742
1746522234808846000,11.62984619140625,-0.5953987460751086,9.543688799399137,1.0593471408575772
1746522234818834200,11.639834228515625,-0.8544049985051154,12.037220602357387,0.715600923448801
1746522234828822000,11.649822021484376,-0.2948679124712944,14.270842408978938,0.560538664291799
1746522234838809900,11.659809814453125,0.909113909292221,16.24923974673152,0.4348869162753224
1746522234848797200,11.669797119140625,2.4380478161454198,17.87591389684677,-0.07566109792292118
1746522234858785300,11.679785400390625,4.130626809322834,18.897220937645436,-1.3421978677988051
1746522234868772900,11.68977294921875,5.5065773091197014,19.157356559431552,-3.1601459926590323
1746522234878760200,11.69976025390625,6.543454844015836,19.134204816424845,-4.9102971771001815
1746522234888748800,11.709748779296875,7.197846973264217,18.978854095715285,-5.967891336810588
1746522234898737000,11.71973681640625,7.503051570832729,18.395111958229542,-6.024350306135416
1746522234908724000,11.729723876953125,7.024031206059456,17.849589369022844,-4.666699433138966
1746522234918711800,11.7397119140625,5.923764610314369,17.009222248220443,-2.0333236906826495
1746522234928700000,11.749699951171875,5.063887317878008,15.425920791363716,0.5980594166517257
1746522234938687000,11.75968701171875,4.7359284521877765,13.820543111777305,3.055633186522126
1746522234948674800,11.7696748046875,4.483051423227787,12.690180652976036,5.399139263185859
1746522234958663000,11.779662841796876,3.9712405494868754,11.48888412477374,7.390572023600339
1746522234968651000,11.789651123046875,2.9355951867341994,10.036258381575346,8.877699755859375
1746522234978637800,11.799637939453126,1.2618278615325689,8.09615833351314,9.72076736779213
1746522234988626000,11.8096259765625,-0.9239742092937231,5.674673529633879,9.725977795916796
1746522234998614000,11.819614013671876,-3.030686961314082,2.884487515309453,8.952481148338318
1746522235008600800,11.829600830078125,-4.678858072966337,-0.5181283863246441,7.6313202233493325
1746522235018589000,11.8395888671875,-5.677360576760768,-4.0599931841731065,6.640791182652116
1746522235028577000,11.849576904296875,-6.061704762017727,-7.256884268644452,6.967802538359165
1746522235038563800,11.859563720703125,-6.302111016461253,-9.849842660516499,8.754186188915371
1746522235048552000,11.869552001953124,-6.1836740221291775,-11.660657572495937,11.60313477333188
1746522235058540000,11.8795400390625,-4.583342520016432,-12.81249770361185,14.375740707302093
1746522235068527900,11.88952783203125,-2.0783809760272502,-13.619476934075355,15.758824712240695
1746522235078515000,11.899514892578125,-0.0568681346476078,-14.011562527239322,15.711275025558471
1746522235088502800,11.909502685546874,0.9150070589840411,-13.581236343008278,14.755986225068568
1746522235098491000,11.919490966796875,0.8709563203334808,-12.519810057789087,12.335976754438876
1746522235108478000,11.92947802734375,0.276045138579607,-10.436692116367816,8.514856623792648
1746522235118465800,11.9394658203125,-0.6445709924578666,-7.751276390072703,3.934235637694597
1746522235128454000,11.949453857421876,-1.6384779851555824,-4.905895142748951,-0.5291361025512218
1746522235138441000,11.95944091796875,-2.8020506396412848,-2.2085393878132105,-4.527065921521187
1746522235148428800,11.9694287109375,-3.9246155764341353,0.028588965624570844,-7.785090396869182
1746522235158417000,11.9794169921875,-4.55822386085093,1.5307956090718506,-10.107165562969445
1746522235168404200,11.989404296875,-4.788407996487617,2.3763433473825453,-11.431017626738548
1746522235178391800,11.999391845703125,-4.7928199677109715,2.9695225907772778,-11.92257247891426
1746522235188380000,12.0093798828125,-4.66659889537394,3.7489936365902423,-12.169743405187129
1746522235198368000,12.019367919921875,-4.548700830224156,4.410449712875486,-12.390600325030087
1746522235208355000,12.02935498046875,-4.127337704649567,4.842278702884912,-12.710939363366364
1746522235218343000,12.039343017578124,-3.438207439497113,5.314893292269111,-13.441143981707095
1746522235228331000,12.0493310546875,-2.399506342435628,5.767769746482372,-14.353790741300582
1746522235238318000,12.059318115234374,-1.3080968607544898,5.394429770320653,-15.033264704835414
1746522235248306000,12.069305908203125,-0.37857130094394087,3.8954555329233407,-15.567964286732673
1746522235258294000,12.0792939453125,0.10354030784294009,2.301618653526902,-15.82205829026699
1746522235268281000,12.089281005859375,-0.07045651501715183,0.912176219472289,-15.45103535887599
1746522235278269000,12.09926904296875,-1.0170995791714639,-0.347622182059288,-13.913781367444992
1746522235288256800,12.1092568359375,-2.8338661660969255,-1.315278881213069,-11.298139434599875
1746522235298244900,12.119244873046876,-5.3387563984155655,-2.4183470903754234,-8.508919634959101
1746522235308232200,12.129232177734375,-7.576258845862746,-4.002590796518326,-5.819667106980085
1746522235318219800,12.1392197265625,-9.214294347947835,-5.92976765012145,-2.8759125791877507
1746522235328208000,12.149207763671875,-10.481544819051027,-8.807405153405666,-0.7519821503847837
1746522235338195200,12.1591953125,-11.310727698016166,-12.733741562283038,-0.19331950909793374
1746522235348183000,12.16918310546875,-12.284432445162533,-17.965051146936414,-0.23938275661468505
1746522235358171000,12.1791708984375,-14.401555532038211,-23.53477084866762,3.5569068841576574
1746522235368158200,12.189158203125,-15.77037954095602,-25.893414873230455,13.298158237051963
1746522235378146000,12.19914599609375,-14.934148497045038,-24.77654551773071,24.29858430662155
1746522235388134000,12.2091337890625,-12.64712944675684,-20.495827515661716,30.422470507264137
1746522235398122000,12.2191220703125,-9.166834677636622,-16.35755749810934,28.447109176206588
1746522235408109000,12.229109130859374,-4.751988775628805,-11.993342882186173,22.20170087469816
1746522235418097000,12.239096923828125,-0.994471640843153,-6.1644847530126565,16.160438012206555
1746522235428085000,12.2490849609375,1.0781167232573032,-1.348121412628889,10.742561899846791
1746522235438072000,12.259072021484375,1.2388392001330852,1.8594301820665597,6.34221330974698
1746522235448060200,12.26906005859375,0.2610907305538654,4.204248510372638,3.920175255899131
1746522235458048000,12.279048095703125,-0.848874252384901,6.236775497719645,3.17016528237015
1746522235468035800,12.289035888671876,-1.5531798748373984,8.40552706502378,3.5180370552763343
1746522235478023200,12.299023193359375,-1.5058499683856963,10.78426753667593,4.073410299628973
1746522235488011000,12.309010986328126,-0.8148375427484512,13.04146428015232,4.300604021278024
1746522235497998800,12.318998779296875,0.21686229724884032,15.093563982975482,4.080870552507043
1746522235507986200,12.328986083984375,1.4767127212285995,16.795864744222165,3.043247167679667
1746522235517974000,12.33897412109375,2.5746879911661145,18.198324480760096,1.528416897241771
1746522235527961900,12.3489619140625,3.279996653181314,19.27142249907255,-0.1311684656113386
1746522235537949200,12.35894921875,3.680931907755136,20.144179146826264,-1.8537457066893577
1746522235547937000,12.36893701171875,3.9355321072459217,20.71251679443121,-3.5834117369845506
1746522235557924900,12.3789248046875,4.295456136995553,20.81374429528713,-5.104454306066036
1746522235567913000,12.388912841796875,4.635981638792157,20.51637229104042,-6.157206286442279
1746522235577900000,12.398900146484374,4.832811201837659,19.631436545193193,-6.716891256514192
1746522235587888000,12.40888818359375,4.849143327957392,18.263472952497004,-6.381750370365381
1746522235597876000,12.4188759765625,4.655898053139448,16.930402978527546,-4.631289973844588
1746522235607863000,12.428863037109375,4.555262088435888,15.41485228486061,-2.165395242613554
1746522235617851100,12.43885107421875,4.962172325766086,13.399519008898734,0.7859607000932097
1746522235627839000,12.4488388671875,5.803648869115114,11.271011773699522,4.005474243000149
1746522235637826000,12.458825927734376,6.768139797714352,8.512026953324675,7.002059028226137
1746522235647814100,12.468814208984375,7.531611894884705,4.267968410611153,9.18080884245336
1746522235657802000,12.478802001953126,7.52352795715034,-0.3615302959024906,10.438092630815506
1746522235667789800,12.488789794921875,6.605768384587765,-4.367577370354533,10.974731656342744
1746522235677777200,12.498777099609375,4.5906192330211395,-8.5594462916255,10.777145721971989
1746522235687765000,12.508764892578125,1.507722776520252,-12.057865915501116,11.692813290691374
1746522235697752800,12.5187529296875,-2.2362568313002584,-14.28415431049466,14.080173706650733
1746522235707740200,12.528740234375,-5.300518145436048,-15.162371561741828,16.632919915121793
1746522235717728000,12.53872802734375,-7.446686125010252,-14.798988331449031,17.48293749232292
1746522235727716000,12.548716064453124,-8.286568092644215,-14.230282435053587,15.391078610563277
1746522235737704000,12.558703857421875,-7.897408616060018,-13.443159413182734,11.813913366752862
1746522235747691000,12.56869091796875,-5.995892857936024,-11.900596793949603,8.606585643941164
1746522235757679000,12.57867919921875,-2.9321991145551203,-9.86521207908392,5.934706275567412
1746522235767667000,12.5886669921875,-0.31831078391168266,-7.960517690923809,3.223866185158491
1746522235777654000,12.598654052734375,1.1818587642174214,-6.785200238108635,0.4262725249260664
1746522235787642000,12.60864208984375,1.4971125351786612,-5.417324908217787,-1.684352432101965
1746522235797630000,12.6186298828125,0.7388496970891952,-3.425814406391978,-2.731896322441101
1746522235807617000,12.628616943359376,-1.0331997231662273,-1.452744401142001,-3.4991754106789825
1746522235817605000,12.638605224609375,-3.0212650529742238,0.32118601055443285,-4.182564501830935
1746522235827593200,12.64859326171875,-4.741085688820481,1.9293840082585811,-5.114020006790757
1746522235837580800,12.658580810546875,-6.1000914835572235,3.2250586098134515,-6.113347270971536
1746522235847568100,12.668568115234375,-6.894764190155267,4.0920477800816295,-7.16059656227827
1746522235857556200,12.67855615234375,-7.216093993094563,4.7401574680596585,-8.047030437728763
1746522235867543800,12.688543701171875,-7.212420857539772,5.228706708678603,-8.947695083105563
1746522235877531100,12.69853125,-5.9248120735406875,5.187632940012216,-10.058866519224644
1746522235887519000,12.70851904296875,-4.224254356569052,5.292817069539428,-11.25965568242669
1746522235897507000,12.718507080078124,-2.8823680389374493,5.869651911854744,-12.186124046623705
