time,seconds_elapsed,z,y,x
1746522223210641000,0.031640869140625,-0.7851264476776123,-0.6780864000320435,0.3544948697090149
1746522223220628000,0.0416279296875,-0.5370213389396667,-0.5876798033714294,0.04933120310306549
1746522223230615800,0.05161572265625,-0.266079306602478,-0.36561957001686096,-0.28361478447914124
1746522223240603000,0.061602783203125,0.08582012355327606,0.013853173702955246,-0.6271547079086304
1746522223250591000,0.071591064453125,0.3392167091369629,0.31893718242645264,-0.8032623529434204
1746522223260578800,0.081578857421875,0.5283591151237488,0.8480135202407837,-0.8617843985557556
1746522223270566000,0.09156591796875,0.7735808491706848,1.4066325426101685,-0.9426584243774414
1746522223280554000,0.101553955078125,0.9589288234710693,2.003384590148926,-0.9233565926551819
1746522223290541800,0.111541748046875,1.1011408567428589,2.458585500717163,-0.8458181023597717
1746522223300529000,0.12152880859375,1.2287774085998535,2.6502223014831543,-0.7756142616271973
1746522223310517000,0.13151708984375,1.378098726272583,2.3633840084075928,-0.7670971751213074
1746522223320504000,0.141504150390625,1.479149341583252,0.20415274798870087,-0.9533741474151611
1746522223330492000,0.151491943359375,1.451640009880066,-2.252594232559204,-1.0371781587600708
1746522223340479700,0.161479736328125,1.279788613319397,-2.8290646076202393,-1.1977835893630981
1746522223350467000,0.171467041015625,0.8938741683959961,0.18054810166358948,-1.634522557258606
1746522223360455000,0.181454833984375,0.5997509956359863,1.7521523237228394,-2.0107967853546143
1746522223370442000,0.19144189453125,0.2996833026409149,1.8392155170440674,-2.1894302368164062
1746522223380430000,0.20143017578125,-0.09107156097888947,1.1360530853271484,-2.211493492126465
1746522223390418200,0.211418212890625,-0.7039679884910583,0.3958583474159241,-1.9612451791763306
1746522223400405000,0.221405029296875,-1.4382888078689575,-0.06355036795139313,-1.5089625120162964
1746522223410393000,0.23139306640625,-2.0909817218780518,-0.19471211731433868,-0.8911774754524231
1746522223420380000,0.2413798828125,-2.4283952713012695,-0.01714618317782879,-0.23561705648899078
1746522223430368000,0.251367919921875,-2.2796847820281982,0.4670351445674896,0.3446282148361206
1746522223440356000,0.261356201171875,-1.750963807106018,0.605009138584137,0.8379819989204407
1746522223450343000,0.271343017578125,-1.0151031017303467,0.5473657846450806,1.227741003036499
1746522223460331000,0.2813310546875,-0.35954800248146057,0.6786490082740784,1.5437486171722412
1746522223470317800,0.29131787109375,0.3053165376186371,1.2081844806671143,1.7882513999938965
1746522223480306000,0.301305908203125,0.8956518173217773,1.987426996231079,1.9475582838058472
1746522223490294000,0.3112939453125,1.3813551664352417,2.2770471572875977,1.9424031972885132
1746522223500280800,0.32128076171875,1.7063462734222412,2.0318806171417236,1.6663345098495483
1746522223510269000,0.33126904296875,1.8464014530181885,1.7490516901016235,1.1931400299072266
1746522223520256000,0.341256103515625,1.8716548681259155,1.518964409828186,0.6178621053695679
1746522223530243800,0.351243896484375,1.8184700012207031,1.333215355873108,0.06026596203446388
1746522223540232000,0.36123193359375,1.6434195041656494,1.3127747774124146,-0.40425804257392883
1746522223550219000,0.371218994140625,1.4231228828430176,1.4860187768936157,-0.7811043858528137
1746522223560206800,0.381206787109375,1.1511297225952148,1.7464745044708252,-1.0647820234298706
1746522223570194000,0.39119384765625,0.8751268982887268,1.8706347942352295,-1.2483742237091064
1746522223580182000,0.40118212890625,0.6113263964653015,1.9069173336029053,-1.3354486227035522
1746522223590169900,0.411169921875,0.4737645387649536,1.956160545349121,-1.3669735193252563
1746522223600157000,0.421156982421875,0.49378839135169983,1.4003134965896606,-1.3117480278015137
1746522223610144800,0.431144775390625,0.632935106754303,0.411517858505249,-1.0651284456253052
1746522223620132900,0.4411328125,0.7179427146911621,-0.7787532210350037,-0.6453978419303894
1746522223630120000,0.451119873046875,0.6583576798439026,-1.609815239906311,-0.0703478753566742
1746522223640107800,0.461107666015625,0.4830860197544098,-1.669714093208313,0.5454052090644836
1746522223650095000,0.47109521484375,0.2872624397277832,-1.2223979234695435,1.054064154624939
1746522223660083000,0.4810830078125,0.21545790135860443,-0.5661818981170654,1.376826286315918
1746522223670070800,0.49107080078125,0.28025737404823303,0.12963257730007172,1.5663505792617798
1746522223680058000,0.50105810546875,0.45992109179496765,0.6211109161376953,1.6650317907333374
1746522223690046000,0.5110458984375,0.7130542993545532,0.8889448046684265,1.6683815717697144
1746522223700033000,0.521032958984375,0.9284481406211853,0.9616963863372803,1.566712498664856
1746522223710021000,0.531021240234375,1.0485903024673462,0.7124889492988586,1.3951038122177124
1746522223720009000,0.541009033203125,1.0417060852050781,0.19021983444690704,1.1941107511520386
1746522223729996000,0.55099609375,0.8637158870697021,-0.30773162841796875,0.9850832223892212
1746522223739984100,0.560984130859375,0.4319719672203064,-0.5877748727798462,0.7959678173065186
1746522223749971000,0.570970947265625,-0.12428411096334457,-0.16268348693847656,0.562736451625824
1746522223759959000,0.580958984375,-0.5535541772842407,0.019241584464907646,0.3117469251155853
1746522223769947100,0.590947021484375,-0.7870422601699829,0.0012141142506152391,0.09801574051380157
1746522223779934000,0.600933837890625,-0.8570801615715027,-0.22585226595401764,-0.0484759546816349
1746522223789922000,0.610922119140625,-0.8787375092506409,-0.4652073383331299,-0.1316123902797699
1746522223799908900,0.620908935546875,-0.9551852345466614,-0.5497784614562988,-0.13286854326725006
1746522223809897000,0.63089697265625,-0.9836469888687134,-0.5762001872062683,-0.11111371219158173
1746522223819885000,0.640885009765625,-0.7943857908248901,-0.9919314384460449,-0.06036499887704849
1746522223829871900,0.650871826171875,-0.4927454888820648,-1.4059146642684937,0.018013959750533104
1746522223839860000,0.66085986328125,-0.2118591070175171,-0.8074588179588318,-0.11443039029836655
1746522223849846800,0.6708466796875,0.15474765002727509,-0.23687656223773956,-0.5896478295326233
1746522223859835000,0.6808349609375,0.41621124744415283,-0.14127932488918304,-1.2408215999603271
1746522223869818400,0.690818359375,0.3614712953567505,-0.5764590501785278,-1.8301125764846802
1746522223879805400,0.700805419921875,-0.02104518562555313,-1.179660439491272,-2.2007992267608643
1746522223889793300,0.710793212890625,-0.5825647115707397,-1.6159288883209229,-2.316035270690918
1746522223899780400,0.7207802734375,-1.1574907302856445,-1.7846617698669434,-2.2054998874664307
1746522223909768400,0.7307685546875,-1.5923998355865479,-1.666718602180481,-1.9504833221435547
1746522223919756300,0.74075634765625,-1.785264253616333,-1.306605577468872,-1.626331090927124
1746522223929743400,0.750743408203125,-1.701075792312622,-0.7783360481262207,-1.295344352722168
1746522223939731500,0.7607314453125,-1.4381810426712036,-0.2507551610469818,-0.9979422092437744
1746522223949719600,0.770719482421875,-1.165424108505249,0.15067215263843536,-0.7072687745094299
1746522223959706400,0.780706298828125,-1.0260027647018433,0.42405733466148376,-0.4112233817577362
1746522223969694500,0.790694580078125,-1.025424838066101,0.593989908695221,-0.11528333276510239
1746522223979681300,0.800681396484375,-1.101237177848816,0.6570255756378174,0.16289277374744415
1746522223989669400,0.81066943359375,-1.1846809387207031,0.6682310700416565,0.42064201831817627
1746522223999657500,0.820657470703125,-1.2724056243896484,0.6484516859054565,0.6423352956771851
1746522224009644300,0.830644287109375,-1.3171342611312866,0.6169068217277527,0.8157986998558044
1746522224019632400,0.84063232421875,-1.2537552118301392,0.5975058674812317,0.9647887349128723
1746522224029619200,0.850619140625,-1.109694480895996,0.6700237393379211,1.1126378774642944
1746522224039607300,0.860607177734375,-1.0016766786575317,0.8024532794952393,1.2591181993484497
1746522224049595400,0.870595458984375,-1.0600179433822632,0.9675889611244202,1.4391803741455078
1746522224059582200,0.880582275390625,-1.163993000984192,1.0488944053649902,1.64975106716156
1746522224069570300,0.8905703125,-1.2824947834014893,1.174738883972168,1.9231770038604736
1746522224079557400,0.900557373046875,-1.4202241897583008,1.3293566703796387,2.2897727489471436
1746522224089545200,0.910545166015625,-1.5544108152389526,1.4563246965408325,2.717278003692627
1746522224099533300,0.920533203125,-1.6139646768569946,1.6380175352096558,3.1860105991363525
1746522224109520400,0.930520263671875,-1.51607346534729,1.9820977449417114,3.64209246635437
1746522224119508200,0.94050830078125,-1.2532130479812622,2.436203718185425,4.016942977905273
1746522224129495300,0.950495361328125,-0.876719057559967,2.9243593215942383,4.274507522583008
1746522224139483400,0.9604833984375,-0.4158519506454468,3.523452043533325,4.386329650878906
1746522224149471200,0.97047119140625,0.09550158679485321,4.342785835266113,4.368680000305176
1746522224159458300,0.980458251953125,0.4921724498271942,5.163140296936035,4.336254119873047
1746522224169446100,0.990446044921875,0.6262766718864441,5.35155725479126,4.463366508483887
1746522224179433500,1.00043359375,0.5087946653366089,4.37392520904541,4.6714959144592285
1746522224189421300,1.01042138671875,0.257287859916687,2.655170202255249,4.6777873039245605
1746522224199409200,1.0204091796875,0.014479710720479488,1.0031970739364624,4.042864799499512
1746522224209396500,1.030396484375,-0.06997871398925781,0.2272222340106964,2.206869602203369
1746522224219384300,1.04038427734375,0.19990530610084534,0.621329128742218,-0.6413464546203613
1746522224229371400,1.050371337890625,0.570493757724762,1.0563842058181763,-3.1965184211730957
1746522224239359500,1.060359375,0.7225019335746765,1.2138559818267822,-4.951798915863037
1746522224249347300,1.070347412109375,0.7209900617599487,1.4112638235092163,-5.887257099151611
1746522224259334400,1.08033447265625,0.6659833192825317,1.764036774635315,-6.136709690093994
1746522224269322500,1.090322509765625,0.5459157228469849,2.2148921489715576,-5.8037824630737305
1746522224279309300,1.100309326171875,0.431098073720932,2.7228384017944336,-4.916682720184326
1746522224289297400,1.11029736328125,0.35647284984588623,3.20883846282959,-3.5455856323242188
1746522224299285500,1.120285400390625,0.45702263712882996,3.5257372856140137,-1.892372965812683
1746522224309272300,1.130272216796875,0.8763312101364136,3.4397504329681396,-0.21676893532276154
1746522224319260400,1.140260498046875,1.4040424823760986,3.0963428020477295,1.120158314704895
1746522224329247200,1.150247314453125,1.794107437133789,2.722850799560547,1.923003077507019
1746522224339235300,1.1602353515625,1.899135947227478,2.3699562549591064,2.076908826828003
1746522224349223400,1.170223388671875,1.7309002876281738,1.958198070526123,1.5540995597839355
1746522224359210200,1.180210205078125,1.442771077156067,1.6007591485977173,0.6832807660102844
1746522224369198300,1.1901982421875,1.198050618171692,1.9844125509262085,-0.24820806086063385
1746522224379185400,1.200185302734375,1.132636547088623,1.650970458984375,-0.9891282916069031
1746522224389173200,1.21017333984375,1.0025317668914795,1.0997005701065063,-1.5521122217178345
1746522224399161300,1.220161376953125,0.804249107837677,0.8041066527366638,-1.906521201133728
1746522224409148200,1.230148193359375,0.6430306434631348,0.5604255795478821,-2.0151162147521973
1746522224419136300,1.24013623046875,0.5331153869628906,0.46562907099723816,-1.8915116786956787
1746522224429123300,1.250123291015625,0.5062520503997803,0.46562638878822327,-1.5233548879623413
1746522224439111200,1.260111083984375,0.38201621174812317,0.3901423215866089,-0.9241449236869812
1746522224449099300,1.270099365234375,0.193687304854393,0.20454049110412598,-0.07732094079256058
1746522224459086300,1.28008642578125,0.049075767397880554,0.189261794090271,0.9250383377075195
1746522224469074200,1.29007421875,-0.0008774113957770169,0.23195278644561768,1.9677026271820068
1746522224479061200,1.300061279296875,0.011828074231743813,0.2520785927772522,2.9354217052459717
1746522224489049300,1.31004931640625,0.0317423939704895,0.25355106592178345,3.7030341625213623
1746522224499037200,1.320037109375,0.15251962840557098,0.31426167488098145,4.167196750640869
1746522224509024300,1.330024169921875,0.3353078365325928,0.5137433409690857,4.267768859863281
1746522224519012400,1.340012451171875,0.4501849114894867,0.5803132057189941,4.015064716339111
1746522224529000200,1.350000244140625,0.4430750608444214,0.2445399910211563,3.4892382621765137
1746522224538987500,1.359987548828125,0.2501820921897888,-0.41058385372161865,2.7088942527770996
1746522224548975000,1.36997509765625,-0.17262108623981476,-0.901831865310669,1.6437023878097534
1746522224558962400,1.37996240234375,-0.7443450689315796,-1.1037726402282715,0.5143681764602661
1746522224568950500,1.389950439453125,-1.3381829261779785,-0.9843620657920837,-0.20082774758338928
1746522224578938400,1.3999384765625,-1.604905366897583,-0.774674654006958,-0.32630276679992676
1746522224588925400,1.409925537109375,-1.6110128164291382,-0.8182690143585205,-0.06117602065205574
1746522224598913500,1.41991357421875,-1.5843496322631836,-0.9018650054931641,0.23008546233177185
1746522224608900400,1.429900390625,-1.5245232582092285,-1.0482134819030762,0.31572020053863525
1746522224618888400,1.439888427734375,-1.486981749534607,-1.573064923286438,-0.19358476996421814
1746522224628876500,1.44987646484375,-1.4352531433105469,-2.490185499191284,-1.2727924585342407
1746522224638863400,1.45986328125,-1.5352771282196045,-3.707559823989868,-2.315875291824341
1746522224648851500,1.4698515625,-1.7541972398757935,-4.646151065826416,-3.056931257247925
1746522224658838300,1.47983837890625,-1.9999500513076782,-5.198263168334961,-3.422487735748291
1746522224668826400,1.489826416015625,-2.2877557277679443,-5.4620890617370605,-3.3923404216766357
1746522224678814500,1.499814453125,-2.3980629444122314,-5.598233222961426,-3.043544292449951
1746522224688801300,1.50980126953125,-1.8006893396377563,-5.142164707183838,-2.5888760089874268
1746522224698789400,1.519789306640625,-0.6483014225959778,-3.8325986862182617,-2.1405889987945557
1746522224708776200,1.529776123046875,0.17653554677963257,-2.4617483615875244,-1.7880847454071045
1746522224718764300,1.539764404296875,0.35462260246276855,-1.8989895582199097,-1.7224606275558472
1746522224728752400,1.54975244140625,0.05931638553738594,-1.8554918766021729,-1.9283884763717651
1746522224738739200,1.5597392578125,-0.4332558512687683,-2.0348093509674072,-2.2315053939819336
1746522224748727300,1.569727294921875,-0.7827895879745483,-2.283987283706665,-2.4347124099731445
1746522224758714400,1.57971435546875,-0.9263262748718262,-2.388761043548584,-2.402548313140869
1746522224768702200,1.5897021484375,-0.808521568775177,-2.2391223907470703,-2.2437500953674316
1746522224778690300,1.599690185546875,-0.49661871790885925,-2.366878032684326,-1.8782187700271606
1746522224788677000,1.609677001953125,-0.20188960433006287,-2.4807963371276855,-1.3164225816726685
1746522224798665200,1.619665283203125,0.11247068643569946,-2.563939094543457,-0.6706303954124451
1746522224808652300,1.62965234375,0.43306413292884827,-2.3520820140838623,-0.03366435319185257
1746522224818640100,1.63964013671875,0.7350641489028931,-1.7611229419708252,0.5021131038665771
1746522224828628200,1.649628173828125,1.0899308919906616,-1.054684042930603,0.9018929600715637
1746522224838615300,1.659615234375,1.4347068071365356,-0.5594469904899597,1.1615080833435059
1746522224848603100,1.66960302734375,1.6731151342391968,-0.17719632387161255,1.216572642326355
1746522224858590500,1.679590576171875,1.7745683193206787,0.11327212303876877,1.0524884462356567
1746522224868578600,1.68957861328125,1.7875746488571167,-0.072044737637043,0.8527035117149353
1746522224878566400,1.69956640625,1.730507493019104,-0.8225997686386108,0.8683738708496094
1746522224888553700,1.7095537109375,1.6129933595657349,-1.7292348146438599,1.119205355644226
1746522224898541600,1.71954150390625,1.5973789691925049,-2.0155889987945557,1.33153235912323
1746522224908528600,1.729528564453125,1.891101360321045,-1.3297760486602783,1.183292269706726
1746522224918516700,1.739516845703125,2.3248043060302734,-0.12499003857374191,0.5537045001983643
1746522224928504600,1.749504638671875,2.493678092956543,0.8321223855018616,-0.3039385676383972
1746522224938491600,1.75949169921875,2.251960277557373,1.1593061685562134,-0.994482696056366
1746522224948479700,1.769479736328125,1.8720461130142212,1.022302508354187,-1.3690171241760254
1746522224958466600,1.779466552734375,1.666188359260559,0.7468171119689941,-1.4816319942474365
1746522224968454700,1.78945458984375,1.711028814315796,0.39316827058792114,-1.4257248640060425
1746522224978442800,1.79944287109375,1.8494850397109985,0.08120859414339066,-1.2234901189804077
1746522224988429600,1.8094296875,1.8866643905639648,0.037140198051929474,-1.0144397020339966
1746522224998417700,1.819417724609375,1.8262547254562378,0.15290801227092743,-0.8845800757408142
1746522225008404500,1.829404541015625,1.67253577709198,0.23369580507278442,-0.7625918388366699
1746522225018392600,1.839392578125,1.385625958442688,0.296822190284729,-0.5746126174926758
1746522225028380700,1.849380615234375,1.0100607872009277,0.2848683297634125,-0.32797864079475403
1746522225038367500,1.859367431640625,0.6784941554069519,0.22192706167697906,-0.03540031611919403
1746522225048355600,1.86935546875,0.4973078966140747,0.04988126456737518,0.30362993478775024
1746522225058342700,1.8793427734375,0.40667200088500977,-0.20184604823589325,0.6751129031181335
1746522225068330500,1.88933056640625,0.40250787138938904,-0.35220491886138916,1.0075839757919312
1746522225078318600,1.899318603515625,0.4958202838897705,-0.3259534537792206,1.2195786237716675
1746522225088305400,1.909305419921875,0.5718660950660706,-0.22568625211715698,1.2672125101089478
1746522225098293500,1.91929345703125,0.5631899237632751,-0.11741972714662552,1.1625081300735474
1746522225108280600,1.929280517578125,0.5105157494544983,-0.13478247821331024,0.963604748249054
1746522225118268400,1.939268310546875,0.4415697753429413,-0.26928073167800903,0.7260552644729614
1746522225128256500,1.949256591796875,0.3652569055557251,-0.4378849267959595,0.4869382977485657
1746522225138243600,1.95924365234375,0.2727803885936737,-0.5175661444664001,0.25900906324386597
1746522225148231400,1.9692314453125,0.1351333111524582,-0.5322638154029846,0.04380515590310097
1746522225158219500,1.979219482421875,-0.04107588529586792,-0.4894769787788391,-0.13070347905158997
1746522225168206600,1.98920654296875,-0.23239657282829285,-0.3432702422142029,-0.24316425621509552
1746522225178194400,1.9991943359375,-0.397388756275177,-0.07142487913370132,-0.2923818528652191
1746522225188181800,2.009181640625,-0.5204864144325256,0.32539597153663635,-0.28746458888053894
1746522225198169300,2.01916943359375,-0.5751864314079285,0.636658787727356,-0.24801066517829895
1746522225208157400,2.029157470703125,-0.504307746887207,0.6471052765846252,-0.20093610882759094
1746522225218144800,2.039144775390625,-0.363118052482605,0.2826846241950989,-0.18120869994163513
1746522225228132600,2.049132568359375,-0.34122341871261597,-0.44047412276268005,-0.1606685370206833
1746522225238119700,2.05911962890625,-0.6304163932800293,-1.2266732454299927,-0.08847157657146454
1746522225248107800,2.069107666015625,-1.2129745483398438,-1.6460756063461304,0.017416508868336678
1746522225258095600,2.079095703125,-1.7678323984146118,-1.3055832386016846,0.07655685395002365
1746522225268082700,2.089082763671875,-1.8689275979995728,-0.2839847505092621,-0.023133518174290657
1746522225278070800,2.09907080078125,-1.4241989850997925,0.9354095458984375,-0.23417314887046814
1746522225288057600,2.1090576171875,-0.7671025991439819,1.5875744819641113,-0.44433411955833435
1746522225298045700,2.119045654296875,-0.3243924677371979,1.1376718282699585,-0.5500812530517578
1746522225308033500,2.129033447265625,-0.25720277428627014,-0.06395523995161057,-0.5168963670730591
1746522225318020600,2.1390205078125,-0.5994444489479065,-1.1911648511886597,-0.44169938564300537
1746522225328008700,2.1490087890625,-1.0766870975494385,-1.8373417854309082,-0.44889765977859497
1746522225337995500,2.15899560546875,-1.3876979351043701,-1.877164363861084,-0.5309112668037415
1746522225347983600,2.168983642578125,-1.559085726737976,-1.3512598276138306,-0.6093981266021729
1746522225357971700,2.1789716796875,-1.5747236013412476,-0.5112159848213196,-0.6079260110855103
1746522225367958500,2.18895849609375,-1.3935351371765137,0.24625277519226074,-0.49122440814971924
1746522225377946600,2.198946533203125,-1.1476694345474243,0.6342424750328064,-0.2909627854824066
1746522225387933400,2.208933349609375,-0.9482007622718811,0.6585108041763306,-0.06647402048110962
1746522225397921500,2.218921630859375,-0.7996863126754761,0.4841676354408264,0.13456988334655762
1746522225407909600,2.22890966796875,-0.7203243970870972,0.2610219120979309,0.2433171421289444
1746522225417896400,2.238896484375,-0.5844713449478149,0.026899093762040138,0.22816769778728485
1746522225427884500,2.248884521484375,-0.4595957398414612,-0.15612265467643738,0.11932455748319626
1746522225440368600,2.26136865234375,-0.5585125684738159,-0.4569588601589203,-0.009488213807344437
1746522225450356500,2.2713564453125,-0.7120140194892883,-0.6071416735649109,0.00824710726737976
1746522225460344600,2.281344482421875,-0.7387784719467163,-0.6290419101715088,0.07834097743034363
1746522225470331600,2.29133154296875,-0.6839918494224548,-0.40842247009277344,0.07778793573379517
1746522225480319500,2.301319580078125,-0.6320586204528809,-0.14325471222400665,0.021604023873806
1746522225490307600,2.3113076171875,-0.5393883585929871,-0.09356047958135605,0.007463774178177118
1746522225500294700,2.321294677734375,-0.4282822906970978,-0.07658016681671143,0.008660332299768925
1746522225510282500,2.331282470703125,-0.2921106815338135,-0.038845356553792953,-0.08785766363143921
1746522225520269600,2.34126953125,-0.16684572398662567,-0.15291333198547363,-0.11378166824579239
1746522225530257700,2.351257568359375,-0.1304554045200348,-0.39906877279281616,0.09226994961500168
1746522225540245500,2.36124560546875,-0.32259848713874817,-0.7465505599975586,0.49147993326187134
1746522225550232600,2.371232666015625,-0.7071537971496582,-1.1949169635772705,0.9934512972831726
1746522225560220400,2.381220458984375,-1.054101586341858,-1.6401445865631104,1.4840068817138672
1746522225570207500,2.39120751953125,-1.2424852848052979,-2.179866075515747,1.9097486734390259
1746522225580195600,2.401195556640625,-1.2026175260543823,-2.3980371952056885,2.2613673210144043
1746522225590183400,2.411183349609375,-0.9840362668037415,-2.123784303665161,2.5001354217529297
1746522225600170500,2.42117041015625,-0.6907705664634705,-1.4019861221313477,2.5528616905212402
1746522225610158600,2.43115869140625,-0.3518272936344147,-0.4063842296600342,2.361161231994629
1746522225620146400,2.441146484375,-0.013116328045725822,0.5533095598220825,1.861441731452942
1746522225630133500,2.451133544921875,0.2424149513244629,1.137211799621582,1.0954115390777588
1746522225640121600,2.46112158203125,0.3255370259284973,1.1189686059951782,0.3401842415332794
1746522225650108700,2.471108642578125,0.2890603840351105,0.6089869141578674,-0.23353220522403717
1746522225660096800,2.4810966796875,0.2191162109375,-0.07038329541683197,-0.6372525095939636
1746522225670084400,2.49108447265625,0.2002265751361847,-0.5657778382301331,-0.952472448348999
1746522225680071700,2.50107177734375,0.3086443841457367,-0.6837867498397827,-1.1407721042633057
1746522225690059800,2.511059814453125,0.5028298497200012,-0.43666812777519226,-1.1801377534866333
1746522225700047600,2.521047607421875,0.7041165828704834,0.1443694680929184,-1.146310567855835
1746522225710034700,2.53103466796875,0.8437356352806091,0.8109532594680786,-1.1153801679611206
1746522225720022800,2.541022705078125,0.8065464496612549,1.3077937364578247,-1.0914607048034668
1746522225730010600,2.5510107421875,0.6197193264961243,1.518354058265686,-1.0701682567596436
1746522225739997700,2.560997802734375,0.43181994557380676,1.331720232963562,-1.0333921909332275
1746522225749985800,2.57098583984375,0.30335450172424316,0.8269078731536865,-0.9170696139335632
1746522225759972600,2.58097265625,0.19674041867256165,0.2661028504371643,-0.6771497130393982
1746522225769960700,2.590960693359375,0.14624594151973724,-0.18467402458190918,-0.3689751923084259
1746522225779948500,2.600948486328125,0.264565110206604,-0.47849687933921814,-0.0241555105894804
1746522225789935600,2.610935546875,0.5720304846763611,-0.5399120450019836,0.3436790704727173
1746522225799923700,2.620923828125,0.9730998873710632,-0.3246127963066101,0.6890638470649719
1746522225809911600,2.63091162109375,1.298545479774475,0.1374104768037796,0.9783136248588562
1746522225819898600,2.640898681640625,1.499264121055603,0.5594908595085144,1.1444059610366821
1746522225829886700,2.65088671875,1.5621546506881714,0.8543673753738403,1.1709457635879517
1746522225839874600,2.66087451171875,1.4678219556808472,0.9619281888008118,1.0311589241027832
1746522225849861600,2.670861572265625,1.2471214532852173,0.8196308612823486,0.7201483845710754
1746522225859849700,2.680849609375,0.9739298820495605,0.5980779528617859,0.33288347721099854
1746522225869837600,2.690837646484375,0.7278213500976562,0.3855277895927429,-0.047399505972862244
1746522225879824100,2.70082421875,0.5186074376106262,0.05450033023953438,-0.32109948992729187
1746522225889812000,2.71081201171875,0.36047273874282837,-0.28347650170326233,-0.49608123302459717
1746522225899800000,2.720800048828125,0.2572467625141144,-0.36197584867477417,-0.5899123549461365
1746522225909787100,2.730787109375,0.2104409635066986,-0.25552862882614136,-0.6348737478256226
1746522225919775000,2.74077490234375,0.22596558928489685,-0.14337730407714844,-0.6462270617485046
1746522225929763000,2.75076318359375,0.32143527269363403,-0.27927035093307495,-0.6272594332695007
1746522225939750100,2.760750244140625,0.44800838828086853,-0.33384543657302856,-0.4815741181373596
1746522225949738000,2.770738037109375,0.446046382188797,-0.31576982140541077,-0.20764531195163727
1746522225959726000,2.78072607421875,0.27489006519317627,-0.10235127806663513,0.08702654391527176
1746522225969713000,2.790712890625,-0.02845599316060543,-0.12054577469825745,0.08081531524658203
1746522225979701000,2.800700927734375,-0.4534507095813751,-0.41445568203926086,-0.41632282733917236
1746522225989689000,2.810689208984375,-0.9379293322563171,-0.788084864616394,-1.1753157377243042
1746522225999676000,2.820676025390625,-1.3232959508895874,-1.489688515663147,-1.7667889595031738
1746522226009664000,2.8306640625,-1.5749205350875854,-2.079712152481079,-2.0206358432769775
1746522226019652000,2.840652099609375,-1.6981240510940552,-1.8106030225753784,-2.011018753051758
1746522226029639000,2.850638916015625,-1.6442949771881104,-0.9135541319847107,-1.7680038213729858
1746522226039627000,2.860626953125,-1.4472367763519287,0.05720028653740883,-1.3892416954040527
1746522226049615000,2.870614990234375,-1.1885532140731812,0.7889696955680847,-0.9299814105033875
1746522226059602000,2.880601806640625,-0.9043770432472229,1.0952301025390625,-0.44794949889183044
1746522226069590000,2.890590087890625,-0.6743481159210205,1.0067065954208374,-0.14066332578659058
1746522226079578000,2.900578125,-0.5875192284584045,0.406143456697464,-0.0844101831316948
1746522226089565000,2.91056494140625,-0.6702142357826233,-0.4726070165634155,-0.2282230257987976
1746522226099553000,2.920552978515625,-0.8624862432479858,-1.4425334930419922,-0.48207980394363403
1746522226109541000,2.930541015625,-1.1124815940856934,-2.1937007904052734,-0.7380384206771851
1746522226119529000,2.940529052734375,-1.3116226196289062,-2.608302593231201,-0.958233118057251
1746522226129516000,2.95051611328125,-1.2926368713378906,-2.6810414791107178,-1.1840025186538696
1746522226139504000,2.960504150390625,-1.1750032901763916,-1.8364983797073364,-1.3204405307769775
1746522226149492000,2.970491943359375,-1.0238170623779297,-0.8396571278572083,-1.2660713195800781
1746522226159479000,2.98047900390625,-0.8995270729064941,-0.3341073989868164,-1.0749306678771973
1746522226169467000,2.990466796875,-0.7386036515235901,-0.29196563363075256,-0.8488990068435669
1746522226179455000,3.000455078125,-0.6073545813560486,-0.49781015515327454,-0.6194956302642822
1746522226189442000,3.010442138671875,-0.6573590040206909,-0.6108543276786804,-0.42526480555534363
1746522226199430000,3.020429931640625,-0.9201557636260986,-0.49645107984542847,-0.31940892338752747
1746522226209418000,3.03041796875,-1.040641188621521,-0.4054487347602844,-0.24124349653720856
1746522226219405000,3.040405029296875,-1.0458866357803345,-0.512764036655426,-0.1278088241815567
1746522226229393000,3.050392822265625,-1.0872350931167603,-1.0151782035827637,-0.19946002960205078
1746522226239381000,3.060381103515625,-1.0704854726791382,-0.7511225938796997,-0.3904044032096863
1746522226249369000,3.070369140625,-0.9468896389007568,0.23007851839065552,-0.5291109085083008
1746522226259356000,3.08035595703125,-0.6279710531234741,0.924103856086731,-0.5276246070861816
1746522226269344000,3.090343994140625,-0.22647477686405182,1.120442509651184,-0.2478381246328354
1746522226279332000,3.10033203125,0.1047942191362381,0.5591456890106201,0.29646673798561096
1746522226289319000,3.11031884765625,0.059435613453388214,-0.2539648413658142,0.9523207545280457
1746522226299307000,3.12030712890625,-0.28158774971961975,-0.16058267652988434,1.4622730016708374
1746522226309295000,3.130295166015625,-0.6291500329971313,0.6097384691238403,1.5144299268722534
1746522226319283000,3.140282958984375,-0.6810153722763062,1.3479411602020264,1.1437069177627563
1746522226329270000,3.15027001953125,-0.304070383310318,1.8401339054107666,0.5184968709945679
1746522226339258000,3.160258056640625,0.22318518161773682,2.462808132171631,-0.03879806026816368
1746522226349246000,3.170245849609375,0.6367191076278687,2.932434558868408,-0.27660590410232544
1746522226359233000,3.18023291015625,0.952826738357544,2.986603021621704,-0.5170145034790039
1746522226369220900,3.190220947265625,1.0515897274017334,3.1195757389068604,-0.8089752793312073
1746522226379209000,3.200208984375,0.970467746257782,3.177746295928955,-1.160582184791565
1746522226389197000,3.210197021484375,0.844395101070404,2.942720890045166,-1.4768792390823364
1746522226399184000,3.220183837890625,0.8459343910217285,2.4751594066619873,-1.739679217338562
1746522226409172000,3.230171875,0.9929291009902954,1.9100621938705444,-1.9832030534744263
1746522226419160000,3.24016015625,1.1734272241592407,1.623640537261963,-2.1250874996185303
1746522226429148200,3.250148193359375,1.284152865409851,1.2598658800125122,-2.064697742462158
1746522226439135000,3.260135009765625,1.290075421333313,0.9515117406845093,-1.767751932144165
1746522226449123000,3.270123046875,1.0525529384613037,0.6561936140060425,-1.2882190942764282
1746522226459111000,3.28011083984375,0.6574591398239136,0.35142087936401367,-0.7240856885910034
1746522226469098000,3.290097900390625,0.33104968070983887,0.08754562586545944,-0.20021353662014008
1746522226479086000,3.300086181640625,0.08664926886558533,0.021392976865172386,0.16581904888153076
1746522226489074000,3.310073974609375,-0.12436692416667938,-0.1169029027223587,0.4102350175380707
1746522226499062000,3.32006201171875,-0.4296189546585083,-0.6465725898742676,0.5916621088981628
1746522226509049000,3.330049072265625,-0.6278595924377441,-1.0393582582473755,0.7511842846870422
1746522226519037000,3.340036865234375,-0.8731921315193176,-0.819811224937439,0.7994716763496399
1746522226529025000,3.35002490234375,-1.1153591871261597,-0.4853666424751282,0.7184135317802429
1746522226539013000,3.36001318359375,-1.3254895210266113,-0.4198482632637024,0.5381463766098022
1746522226549000000,3.37,-1.5673822164535522,-0.636073887348175,0.44802388548851013
1746522226558988000,3.379988037109375,-1.8024314641952515,-1.0051385164260864,0.5168341398239136
1746522226568976100,3.38997607421875,-1.9793168306350708,-1.3454824686050415,0.6872735619544983
1746522226578963000,3.399962890625,-2.0507755279541016,-1.5161114931106567,0.9334245324134827
1746522226588951000,3.409950927734375,-1.9898676872253418,-1.5043361186981201,1.2491310834884644
1746522226598939100,3.419939208984375,-1.7838863134384155,-1.3092998266220093,1.5763370990753174
1746522226608927000,3.429927001953125,-1.4665666818618774,-0.9353756308555603,1.8525408506393433
1746522226618914000,3.4399140625,-1.1200891733169556,-0.5496808886528015,2.1251626014709473
1746522226628902100,3.449902099609375,-0.8134625554084778,-0.4981430172920227,2.4190170764923096
1746522226638890000,3.459889892578125,-0.5564813613891602,-0.7391785383224487,2.7261855602264404
1746522226648878000,3.469878173828125,-0.4880617558956146,-0.4080480635166168,3.034064531326294
1746522226658865000,3.479864990234375,-0.3834506571292877,0.09317748248577118,3.175701141357422
1746522226668853000,3.48985302734375,-0.19083653390407562,0.46969467401504517,3.0161757469177246
1746522226678841000,3.499841064453125,-0.18061505258083344,0.8698104023933411,2.6493167877197266
1746522226688829200,3.5098291015625,-0.2585437595844269,0.7847501635551453,2.1680989265441895
1746522226698816000,3.51981591796875,-0.48223358392715454,0.329511821269989,1.6359585523605347
1746522226708804000,3.52980419921875,-0.6824513673782349,-0.872984766960144,1.1334662437438965
1746522226718792200,3.539792236328125,-0.70322185754776,-2.454629898071289,0.8052046895027161
1746522226728780000,3.549780029296875,-0.5482088923454285,-3.359017848968506,0.5436547994613647
1746522226738767000,3.55976708984375,-0.2483167201280594,-3.106818437576294,0.24927958846092224
1746522226748755000,3.5697548828125,0.03720790520310402,-2.266547918319702,0.05503518879413605
1746522226758743000,3.579742919921875,0.21130326390266418,-1.2947666645050049,-0.02292698808014393
1746522226768731100,3.589731201171875,0.29454678297042847,-0.5274366140365601,-0.049734897911548615
1746522226778718000,3.599718017578125,0.33525025844573975,-0.011590871028602123,-0.046981457620859146
1746522226788706000,3.6097060546875,0.4632185399532318,0.24792379140853882,-0.04711676388978958
1746522226798694100,3.619694091796875,0.6575486063957214,0.3015707731246948,-0.013285829685628414
1746522226808682200,3.62968212890625,0.8322569131851196,0.2398158311843872,0.07490763068199158
1746522226818669000,3.6396689453125,0.8457628488540649,-0.07361958175897598,0.16484710574150085
1746522226828657200,3.6496572265625,0.7094326615333557,-0.5009943246841431,0.14586828649044037
1746522226838645000,3.65964501953125,0.574846625328064,-0.8548892736434937,-0.0506301075220108
1746522226848633000,3.669633056640625,0.482538104057312,-1.0235605239868164,-0.3464708924293518
1746522226858620200,3.6796201171875,0.43110474944114685,-1.150448203086853,-0.5557162165641785
1746522226868608000,3.68960791015625,0.40676090121269226,-1.3012609481811523,-0.564525842666626
1746522226878596000,3.69959619140625,0.36466431617736816,-1.4101732969284058,-0.44063398241996765
1746522226888584000,3.709583984375,0.23853205144405365,-1.4366697072982788,-0.3638728857040405
1746522226898571000,3.719571044921875,0.09325075894594193,-1.3483004570007324,-0.2560745179653168
1746522226908558800,3.729558837890625,-0.0636046752333641,-1.0064082145690918,-0.09051520377397537
1746522226918547000,3.739546875,-0.1895783245563507,-0.48706328868865967,0.05867960304021835
1746522226928535000,3.74953515625,-0.26684072613716125,-0.06789812445640564,0.1472209244966507
1746522226938521900,3.75952197265625,-0.3326575756072998,0.10844707489013672,0.19210611283779144
1746522226948510000,3.769510009765625,-0.40514838695526123,0.12660104036331177,0.23956716060638428
1746522226958498000,3.779498046875,-0.4715215563774109,0.1637295037508011,0.32818010449409485
1746522226968486100,3.789486083984375,-0.5013681054115295,0.24985143542289734,0.45744842290878296
1746522226978473000,3.799472900390625,-0.5871240496635437,0.03452396020293236,0.6329038739204407
1746522226988461000,3.8094609375,-0.7442784309387207,-0.43477514386177063,0.7887700200080872
1746522226998449000,3.819448974609375,-0.8645979166030884,-0.786468505859375,0.7842950820922852
1746522227008437000,3.82943701171875,-0.9105976223945618,-0.7338716387748718,0.5310866236686707
1746522227018424000,3.839424072265625,-0.8263202905654907,-0.33309173583984375,0.06737519055604935
1746522227028412000,3.849411865234375,-0.7117107510566711,0.06294384598731995,-0.41278839111328125
1746522227038400000,3.85939990234375,-1.1309828758239746,0.21346543729305267,-0.3834446370601654
1746522227048388000,3.86938818359375,-1.0595405101776123,0.9372791051864624,-0.5714156627655029
1746522227058376200,3.879376220703125,-0.8828830122947693,1.3569778203964233,-0.7022162675857544
1746522227068363000,3.889363037109375,-0.6773341298103333,1.4958473443984985,-0.6675761342048645
1746522227078351000,3.89935107421875,-0.4178655743598938,1.2874318361282349,-0.6202911734580994
1746522227088339000,3.9093388671875,-0.12057247012853622,0.957777738571167,-0.6408964991569519
1746522227098327000,3.9193271484375,0.16256283223628998,0.8267960548400879,-0.7203364968299866
1746522227108314000,3.929314208984375,0.393829882144928,0.9717822670936584,-0.8248215913772583
1746522227118302000,3.939302001953125,0.49945005774497986,1.1081856489181519,-0.8884605169296265
1746522227128290000,3.9492900390625,0.417385995388031,1.1328036785125732,-0.8923754096031189
1746522227138278000,3.95927783203125,0.21018007397651672,0.8720141649246216,-0.9037976861000061
1746522227148265000,3.969264892578125,0.009361032396554947,0.2444508671760559,-0.9707418084144592
1746522227158253000,3.979253173828125,-0.0021251814905554056,-0.6980255842208862,-1.061089277267456
1746522227168241200,3.9892412109375,0.19961409270763397,-1.6021031141281128,-1.02873957157135
1746522227178228700,3.999228759765625,0.43353551626205444,-2.019467353820801,-0.8174979090690613
1746522227188216800,4.009216796875,0.5424289703369141,-1.6447386741638184,-0.5248126983642578
1746522227198204200,4.0192041015625,0.5924282073974609,-0.7723024487495422,-0.21499919891357422
1746522227208191700,4.029191650390625,0.6313157677650452,0.000845812726765871,0.11010006070137024
1746522227218179800,4.039179931640625,0.6767173409461975,0.4967876374721527,0.45909613370895386
1746522227228168000,4.04916796875,0.6748499274253845,0.80399489402771,0.7600917220115662
1746522227238155000,4.059155029296875,0.5411722660064697,0.8374822735786438,0.9423885345458984
1746522227248142800,4.069142822265625,0.31204962730407715,0.5965151786804199,0.9869559407234192
1746522227258131000,4.079130859375,0.03727051243185997,0.1785629689693451,1.0056054592132568
1746522227268118800,4.089118896484375,-0.28121671080589294,-0.21866923570632935,0.9330045580863953
1746522227278107000,4.09910693359375,-0.6894894242286682,-0.48641517758369446,0.8253345489501953
1746522227288094000,4.109093994140625,-0.9379536509513855,-0.707724392414093,0.7283510565757751
1746522227298081800,4.119081787109375,-1.108961582183838,-0.8773043751716614,0.6516205668449402
1746522227308070000,4.12906982421875,-1.071092128753662,-0.8429522514343262,0.6247642636299133
1746522227318058000,4.13905810546875,-0.9094886779785156,-0.6937944293022156,0.6939499974250793
1746522227328045800,4.1490458984375,-0.8266963362693787,-0.4605787396430969,0.9506718516349792
1746522227338033000,4.159032958984375,-0.9955905675888062,-0.1664632111787796,1.257048487663269
1746522227348021000,4.16902099609375,-1.3228026628494263,0.13102149963378906,1.4969478845596313
1746522227358008800,4.1790087890625,-1.4336673021316528,0.5066132545471191,1.6119152307510376
1746522227367997000,4.188996826171875,-1.2279635667800903,0.9923233389854431,1.386275053024292
1746522227377984000,4.19898388671875,-0.8707612156867981,1.0616645812988281,0.843600332736969
1746522227387971800,4.208971923828125,-0.5863404870033264,0.6240509152412415,0.1949208527803421
1746522227397960000,4.2189599609375,-0.528530478477478,-0.2016027718782425,-0.30546820163726807
1746522227407948000,4.228947998046875,-0.6148139834403992,-0.9581567645072937,-0.7250951528549194
1746522227417936000,4.238935791015625,-0.7287783622741699,-1.41190767288208,-1.204209566116333
1746522227427923000,4.2489228515625,-0.7948664426803589,-1.5138859748840332,-1.6979314088821411
1746522227437911000,4.2589111328125,-0.6840318441390991,-1.2762422561645508,-2.092710256576538
1746522227447899000,4.26889892578125,-0.2664623558521271,-0.7095905542373657,-2.2986769676208496
1746522227457887000,4.278886962890625,0.37074074149131775,0.015959177166223526,-2.3188729286193848
1746522227467875000,4.288875,0.9210063815116882,0.6004000902175903,-2.1715073585510254
1746522227477862000,4.29886181640625,1.1837414503097534,0.8719016909599304,-1.88438081741333
1746522227487850000,4.30885009765625,1.2212615013122559,0.7674665451049805,-1.4983882904052734
1746522227497838000,4.318838134765625,1.1462000608444214,0.3688797056674957,-1.0867304801940918
1746522227507826000,4.328825927734375,1.0324034690856934,-0.16591696441173553,-0.7532114386558533
1746522227517814000,4.33881396484375,0.9299237728118896,-0.6154694557189941,-0.5487352609634399
1746522227527801000,4.348801025390625,0.8613001704216003,-0.8906955718994141,-0.45843538641929626
1746522227537789000,4.358788818359375,0.8201130628585815,-1.0313621759414673,-0.4324445128440857
1746522227547777000,4.368777099609375,0.7813613414764404,-1.0930633544921875,-0.3973342776298523
1746522227557765000,4.37876513671875,0.7148486375808716,-1.087126612663269,-0.3013390302658081
1746522227567753000,4.3887529296875,0.6000553369522095,-1.0223968029022217,-0.14432983100414276
1746522227577740000,4.398739990234375,0.4878886044025421,-0.9528588056564331,0.03198768198490143
1746522227587728100,4.40872802734375,0.45755907893180847,-0.8905128836631775,0.18654467165470123
1746522227597716000,4.418716064453125,0.4892919659614563,-0.783171534538269,0.28494396805763245
1746522227607703800,4.428703857421875,0.5381649136543274,-0.5673842430114746,0.34405434131622314
1746522227617691100,4.438691162109375,0.5699641108512878,-0.23839302361011505,0.4183650314807892
1746522227627679000,4.448678955078125,0.568136990070343,0.1898338496685028,0.5310289859771729
1746522227637666800,4.458666748046875,0.5420257449150085,0.5321651101112366,0.713697075843811
1746522227647655000,4.468655029296875,0.5007701516151428,0.5669561624526978,1.0238744020462036
1746522227657642800,4.478642822265625,0.41910669207572937,0.19449494779109955,1.4674118757247925
1746522227667630000,4.488630126953125,0.28961220383644104,-0.3716440498828888,1.9217355251312256
1746522227677618000,4.498617919921875,0.21447642147541046,-0.6320127844810486,2.1661293506622314
1746522227687605800,4.508605712890625,0.31739717721939087,-0.30141133069992065,2.09488582611084
1746522227697593900,4.51859375,0.5807121396064758,0.5411779284477234,1.7470149993896484
1746522227707582000,4.52858203125,0.813942551612854,1.5103778839111328,1.3305222988128662
1746522227717568800,4.53856884765625,0.8459649682044983,2.236302137374878,0.9848208427429199
1746522227727556900,4.548556884765625,0.7013598680496216,2.737797498703003,0.731093168258667
1746522227737545000,4.558544921875,0.6271263360977173,3.223825693130493,0.5532888174057007
1746522227747532800,4.56853271484375,0.8111321926116943,3.6070892810821533,0.3546416461467743
1746522227757521000,4.57852099609375,1.1384203433990479,3.6765100955963135,0.07413407415151596
1746522227767508000,4.588508056640625,1.3754584789276123,3.3625214099884033,-0.2703881561756134
1746522227777495800,4.598495849609375,1.440628170967102,2.800201892852783,-0.6183999180793762
1746522227787484000,4.60848388671875,1.3984529972076416,2.1631546020507812,-0.910783588886261
1746522227797472000,4.618471923828125,1.319003939628601,1.5525652170181274,-1.0523655414581299
1746522227807460000,4.628460205078125,1.2284497022628784,0.9528342485427856,-1.0041618347167969
1746522227817447000,4.638447021484375,1.12760329246521,0.46694502234458923,-0.7998417019844055
1746522227827435000,4.64843505859375,1.0334755182266235,0.20631489157676697,-0.5593529343605042
1746522227837422800,4.6584228515625,1.0173312425613403,0.08110982924699783,-0.37484031915664673
1746522227847411000,4.668410888671875,1.116289734840393,-0.07262859493494034,-0.3050817549228668
1746522227857399000,4.67839892578125,1.2505601644515991,-0.3404659032821655,-0.3351781368255615
1746522227867385900,4.6883857421875,1.330471396446228,-0.642949104309082,-0.4115437865257263
1746522227877374700,4.698374755859375,1.2942638397216797,-0.8410581946372986,-0.5041741132736206
1746522227887362800,4.70836279296875,1.1259808540344238,-0.8479540944099426,-0.5779075026512146
1746522227897350700,4.7183505859375,0.8169801831245422,-0.7145204544067383,-0.5819355249404907
1746522227907338500,4.72833837890625,0.41014519333839417,-0.6021411418914795,-0.48393628001213074
1746522227917325800,4.738325927734375,-0.0026293343398720026,-0.6294580101966858,-0.2621013820171356
1746522227927313700,4.748313720703125,-0.3199487626552582,-0.790727436542511,0.03884518891572952
1746522227937301800,4.7583017578125,-0.47720444202423096,-0.9509575963020325,0.32677575945854187
1746522227947289600,4.76828955078125,-0.4664030373096466,-0.9899405837059021,0.526745080947876
1746522227957277400,4.77827734375,-0.3330763876438141,-0.8930196166038513,0.6425816416740417
1746522227967264800,4.7882646484375,-0.12677590548992157,-0.6952856183052063,0.6857367157936096
1746522227977252600,4.798252685546875,0.02021193690598011,-0.5673263072967529,0.7289214730262756
1746522227987240400,4.808240478515625,0.008430661633610725,-0.5913487672805786,0.8412277698516846
1746522227997228500,4.818228515625,-0.18348897993564606,-0.7251808643341064,1.0183967351913452
1746522228007216600,4.828216552734375,-0.5114849209785461,-0.840309202671051,1.1851987838745117
1746522228017203500,4.838203369140625,-0.8833101391792297,-0.8478840589523315,1.2711437940597534
1746522228027191600,4.848191650390625,-1.2425743341445923,-0.6143639087677002,1.2029379606246948
1746522228037179600,4.8581796875,-1.4237490892410278,0.032028425484895706,0.9210065007209778
1746522228047167500,4.86816748046875,-1.3518493175506592,0.8754909038543701,0.530366837978363
1746522228057154600,4.878154541015625,-1.1627897024154663,1.2634154558181763,0.2536420524120331
1746522228067142700,4.888142578125,-1.0635390281677246,0.9892206788063049,0.16580919921398163
1746522228077130500,4.898130615234375,-1.043919324874878,0.3863086700439453,0.14701606333255768
1746522228087118600,4.90811865234375,-1.0122898817062378,-0.15397413074970245,0.09600654244422913
1746522228097106700,4.918106689453125,-0.9163335561752319,-0.47375690937042236,-0.022421296685934067
1746522228107093500,4.928093505859375,-0.7431924343109131,-0.5710883736610413,-0.19544699788093567
1746522228117081600,4.93808154296875,-0.524806022644043,-0.6752163767814636,-0.36855432391166687
1746522228127069700,4.948069580078125,-0.30359604954719543,-0.8856583833694458,-0.4553040862083435
1746522228137057500,4.9580576171875,-0.14836250245571136,-1.135482907295227,-0.42803704738616943
1746522228147045600,4.968045654296875,-0.045930635184049606,-1.3082423210144043,-0.3924848437309265
1746522228157032700,4.97803271484375,0.027804838493466377,-1.4002749919891357,-0.3796883523464203
1746522228167020500,4.9880205078125,0.07381252199411392,-1.478384256362915,-0.3748500645160675
1746522228177008600,4.998008544921875,0.11218228191137314,-1.5785402059555054,-0.3733783960342407
1746522228186996700,5.007996826171875,0.14068721234798431,-1.654162883758545,-0.38056764006614685
1746522228196983600,5.017983642578125,0.14259271323680878,-1.6993203163146973,-0.39095211029052734
1746522228206971600,5.0279716796875,0.13594919443130493,-1.7368359565734863,-0.3862795829772949
1746522228216959700,5.037959716796875,0.20896373689174652,-1.7920893430709839,-0.38053035736083984
1746522228226947600,5.047947509765625,0.3398694097995758,-1.7459884881973267,-0.4053959548473358
1746522228236935700,5.057935791015625,0.46735814213752747,-1.5695139169692993,-0.40104541182518005
1746522228246922800,5.0679228515625,0.548046350479126,-1.4256130456924438,-0.32622018456459045
1746522228256910600,5.07791064453125,0.6677746176719666,-1.2046902179718018,-0.19935864210128784
1746522228266898700,5.087898681640625,0.8108485341072083,-0.7570727467536926,-0.03847645968198776
1746522228276886800,5.09788671875,0.891713559627533,-0.11980710178613663,0.15986964106559753
1746522228286873600,5.10787353515625,0.989180326461792,0.8430368900299072,0.3592749238014221
1746522228296861700,5.11786181640625,1.053891658782959,1.656688928604126,0.5866015553474426
1746522228306849800,5.127849853515625,1.0985409021377563,1.8943713903427124,0.847394585609436
1746522228316837600,5.137837646484375,1.1045591831207275,1.8394855260849,1.1477326154708862
1746522228326825700,5.14782568359375,1.1149383783340454,1.6076375246047974,1.4271113872528076
1746522228336812800,5.157812744140625,1.0665273666381836,1.1564804315567017,1.658482551574707
1746522228346800600,5.167800537109375,0.8311453461647034,0.5021718144416809,1.7090132236480713
1746522228356788700,5.177788818359375,0.47422951459884644,-0.04540792852640152,1.801985263824463
1746522228366776800,5.18777685546875,0.1852358728647232,-0.09565120190382004,1.8619273900985718
1746522228376763600,5.197763671875,0.044366102665662766,0.26859545707702637,1.7692800760269165
1746522228386751700,5.207751708984375,0.059943750500679016,0.8996192812919617,1.5974771976470947
1746522228396739800,5.21773974609375,0.324688583612442,1.5545004606246948,1.2321032285690308
1746522228406727700,5.227727783203125,0.8243726491928101,1.9855493307113647,0.6233850121498108
1746522228416715500,5.237715576171875,1.46626877784729,2.059777021408081,-0.14046336710453033
1746522228426702800,5.247702880859375,2.008673667907715,1.8942197561264038,-0.9017574787139893
1746522228436690700,5.257690673828125,2.0293874740600586,1.5402082204818726,-1.4066035747528076
1746522228446678500,5.267678466796875,1.744484782218933,0.8848309516906738,-1.6904411315917969
1746522228456666600,5.27766650390625,1.4011790752410889,0.03784610331058502,-1.8010411262512207
1746522228466653700,5.28765380859375,1.1468065977096558,-0.7904938459396362,-1.77549409866333
1746522228476641500,5.2976416015625,1.013877034187317,-1.2567874193191528,-1.6545701026916504
1746522228486629600,5.307629638671875,1.1035757064819336,-1.0772440433502197,-1.5401655435562134
1746522228496617500,5.317617431640625,1.2368464469909668,-0.5992002487182617,-1.394205093383789
1746522228506605600,5.32760546875,1.3010364770889282,-0.029417088255286217,-1.1769822835922241
1746522228516592600,5.337592529296875,1.2729030847549438,0.4763249158859253,-0.9203771352767944
1746522228526580500,5.34758056640625,1.1501590013504028,0.9630710482597351,-0.686281681060791
1746522228536568600,5.357568603515625,1.0111854076385498,1.6590181589126587,-0.5914254784584045
1746522228546556700,5.367556640625,0.865127444267273,2.3422415256500244,-0.6051905751228333
1746522228556543500,5.37754345703125,0.7771124243736267,2.9061460494995117,-0.7985911965370178
1746522228566531600,5.387531494140625,0.6930999159812927,3.009089231491089,-1.0857884883880615
1746522228576519700,5.397519775390625,0.4651985764503479,2.7417051792144775,-1.167478322982788
1746522228586507500,5.407507568359375,0.1773129403591156,2.321824312210083,-1.0221868753433228
1746522228596494600,5.41749462890625,-0.014895394444465637,1.8330708742141724,-0.7981453537940979
1746522228606482700,5.427482666015625,-0.1151876151561737,1.4300177097320557,-0.5116637945175171
1746522228616470500,5.437470458984375,-0.1783553957939148,1.0700539350509644,-0.16856294870376587
1746522228626458600,5.447458740234375,-0.22535690665245056,0.6950241327285767,0.1724235713481903
1746522228636445400,5.457445556640625,-0.2217792123556137,0.25074756145477295,0.4221433699131012
1746522228646433500,5.46743359375,-0.14816118776798248,-0.31527289748191833,0.5378237962722778
1746522228656421600,5.477421630859375,-0.03764026612043381,-0.9104757905006409,0.5538768172264099
1746522228666409700,5.48740966796875,0.04724349454045296,-0.9565443992614746,0.4720075726509094
1746522228676396500,5.497396484375,0.070212721824646,-0.09858546406030655,0.23390577733516693
1746522228686384600,5.507384521484375,0.01114584133028984,0.4164852201938629,0.08354122936725616
1746522228696372500,5.51737255859375,-0.12318799644708633,0.23000667989253998,0.12467854470014572
1746522228706360600,5.527360595703125,-0.3073583245277405,-0.37588071823120117,0.21435707807540894
1746522228716348700,5.5373486328125,-0.49977919459342957,-0.3667048215866089,0.3465721309185028
1746522228726335500,5.54733544921875,-0.6728927493095398,0.28589683771133423,0.543046236038208
1746522228736323600,5.557323486328125,-0.823215126991272,0.9398754835128784,0.7796411514282227
1746522228746311700,5.567311767578125,-0.9709805846214294,1.2557902336120605,1.0102988481521606
1746522228756299800,5.5772998046875,-1.1351596117019653,1.348381757736206,1.1615482568740845
1746522228766286600,5.58728662109375,-1.3891278505325317,1.4732545614242554,1.1926648616790771
1746522228776274700,5.597274658203125,-1.5861397981643677,1.5952824354171753,1.0115875005722046
1746522228786262500,5.607262451171875,-1.5899484157562256,1.6640487909317017,0.6986395120620728
1746522228796250600,5.617250732421875,-1.493252158164978,1.7249892950057983,0.3093074858188629
1746522228806237700,5.62723779296875,-1.3827106952667236,1.839668869972229,-0.10939140617847443
1746522228816225500,5.6372255859375,-1.3231432437896729,1.9841629266738892,-0.5083012580871582
1746522228826213600,5.647213623046875,-1.331699252128601,2.0766959190368652,-0.8181904554367065
1746522228836201700,5.65720166015625,-1.428378701210022,2.063371419906616,-0.9938757419586182
1746522228846188500,5.6671884765625,-1.562878966331482,1.7504539489746094,-1.0635907649993896
1746522228856176600,5.6771767578125,-1.6500167846679688,1.0992045402526855,-1.0885964632034302
1746522228866164700,5.687164794921875,-1.635108470916748,0.3712395429611206,-1.1147819757461548
1746522228876152600,5.697152587890625,-1.48860502243042,-0.17965660989284515,-1.1704108715057373
1746522228886139400,5.707139404296875,-1.1935536861419678,-0.5013042688369751,-1.2485154867172241
1746522228896127500,5.71712744140625,-0.7665480971336365,-0.6857889294624329,-1.330783486366272
1746522228906115600,5.727115478515625,-0.2947506606578827,-0.6439712643623352,-1.3571321964263916
1746522228916102400,5.737102294921875,0.10317883640527725,-0.2499811053276062,-1.2671738862991333
1746522228926090500,5.747090576171875,0.3413070738315582,0.3441851735115051,-1.047305941581726
1746522228936078600,5.75707861328125,0.3306240439414978,0.9284605979919434,-0.701607346534729
1746522228946066700,5.767066650390625,0.08240985125303268,1.0762046575546265,-0.288713663816452
1746522228956054500,5.777054443359375,-0.2956599295139313,0.9196701049804688,0.0677323266863823
1746522228966041600,5.78704150390625,-0.5742568373680115,0.5110229253768921,0.24155689775943756
1746522228976029400,5.797029541015625,-0.5495054125785828,-0.02701525203883648,0.29459425806999207
1746522228986017500,5.807017578125,-0.3048399090766907,-0.01646304503083229,0.35796985030174255
1746522228996004600,5.817004638671875,-0.0026390510611236095,0.10543064028024673,0.5767871737480164
1746522229005992400,5.826992431640625,0.19861668348312378,0.3255510926246643,0.9436238408088684
1746522229015980500,5.83698046875,0.30053213238716125,0.7708015441894531,1.3966631889343262
1746522229025968600,5.84696875,0.437462717294693,1.3782557249069214,1.809965968132019
1746522229035955500,5.85695556640625,0.6996346712112427,1.7831007242202759,1.927797794342041
1746522229045943600,5.866943603515625,1.0608798265457153,2.239863634109497,1.6174036264419556
1746522229055931600,5.876931640625,1.2758384943008423,2.749262571334839,0.8861004114151001
1746522229065919500,5.88691943359375,1.1290912628173828,2.8545079231262207,-0.013829274103045464
1746522229075906600,5.896906494140625,0.7055500745773315,2.6038694381713867,-0.7554961442947388
1746522229085894700,5.906894775390625,0.32092517614364624,2.4463624954223633,-1.1577064990997314
1746522229095882500,5.916882568359375,0.14033280313014984,2.456186294555664,-1.1660223007202148
1746522229105870600,5.92687060546875,0.15253254771232605,2.4897706508636475,-0.8020178079605103
1746522229115857700,5.936857666015625,0.34580135345458984,1.9438222646713257,-0.24168522655963898
1746522229125845500,5.946845458984375,0.6749200820922852,1.057435393333435,0.15643693506717682
1746522229135833600,5.95683349609375,1.0189603567123413,0.5369466543197632,0.17868977785110474
1746522229145821700,5.96682177734375,1.292493462562561,0.560067892074585,-0.23456165194511414
1746522229155808500,5.97680859375,1.4451520442962646,0.6772893071174622,-0.979463517665863
1746522229165796600,5.986796630859375,1.5999155044555664,0.5189511775970459,-1.814566969871521
1746522229175784700,5.99678466796875,1.71927809715271,0.16893644630908966,-2.5349278450012207
1746522229185771500,6.006771484375,1.6769609451293945,-0.07777449488639832,-3.0355939865112305
1746522229195759600,6.016759521484375,1.4581100940704346,-0.15246950089931488,-3.268824815750122
1746522229205747700,6.026747802734375,1.1371140480041504,-0.15905731916427612,-3.179727554321289
1746522229215735600,6.036735595703125,0.7679224610328674,-0.292813241481781,-2.7404932975769043
1746522229225722600,6.04672265625,0.44106295704841614,-0.5695546865463257,-1.9760794639587402
1746522229235710500,6.05671044921875,0.21541304886341095,-0.9135229587554932,-0.9859097003936768
1746522229245698600,6.066698486328125,0.13649484515190125,-1.1803488731384277,0.1347493678331375
1746522229255686400,6.076686279296875,0.19048750400543213,-1.3216702938079834,1.2796663045883179
1746522229265673500,6.086673583984375,0.3364623785018921,-1.4317758083343506,2.3245387077331543
1746522229275661600,6.09666162109375,0.5332478284835815,-1.5311199426651,3.165710926055908
1746522229285649700,6.106649658203125,0.693321168422699,-1.5009534358978271,3.7933146953582764
1746522229295637500,6.116637451171875,0.7304402589797974,-1.3364022970199585,4.196988105773926
1746522229305624600,6.12662451171875,0.6031753420829773,-1.1064869165420532,4.356039047241211
1746522229315612700,6.13661279296875,0.3624681532382965,-0.9337831139564514,4.235252380371094
1746522229325600500,6.1466005859375,0.10063859820365906,-0.8724612593650818,3.7582640647888184
1746522229335587600,6.156587646484375,-0.09730217605829239,-1.0054408311843872,2.935574769973755
1746522229345575700,6.16657568359375,-0.27290308475494385,-1.3102037906646729,1.9444715976715088
1746522229355563500,6.1765634765625,-0.5436602830886841,-1.7628567218780518,1.0874950885772705
1746522229365551400,6.18655126953125,-0.9109678864479065,-2.3466506004333496,0.5333285927772522
1746522229375538700,6.19653857421875,-1.2725881338119507,-2.8884761333465576,0.31022173166275024
1746522229385526500,6.206526611328125,-1.3587610721588135,-3.3183822631835938,0.3217580318450928
1746522229395514400,6.216514404296875,-1.0324188470840454,-3.2370426654815674,0.37414562702178955
1746522229405502500,6.22650244140625,-0.5115910768508911,-2.5232796669006348,0.3525184392929077
1746522229415489500,6.236489501953125,-0.210844025015831,-1.7884817123413086,0.3355700969696045
1746522229425477600,6.2464775390625,-0.26669204235076904,-1.7487692832946777,0.45232293009757996
1746522229435465500,6.256465576171875,-0.5738698244094849,-2.0061745643615723,0.5602776408195496
1746522229445452500,6.26645263671875,-0.8792043924331665,-2.0134105682373047,0.4844398498535156
1746522229455440600,6.276440673828125,-1.1419814825057983,-1.7292066812515259,0.34532642364501953
1746522229465428500,6.286428466796875,-1.424858570098877,-1.3248366117477417,0.3269062042236328
1746522229475416300,6.296416259765625,-1.6699542999267578,-0.8802030086517334,0.5177789926528931
1746522229485403600,6.306403564453125,-1.9044322967529297,-0.4273027181625366,0.8989483118057251
1746522229495391500,6.3163916015625,-2.1098430156707764,-0.010513498447835445,1.4388147592544556
1746522229505379300,6.32637939453125,-2.1994082927703857,0.2735094726085663,2.0458974838256836
1746522229515367400,6.336367431640625,-2.130206823348999,0.42896750569343567,2.5784058570861816
1746522229525354500,6.3463544921875,-1.943698525428772,0.6179715394973755,2.959662914276123
1746522229535342300,6.35634228515625,-1.712425947189331,0.8338244557380676,3.186265468597412
1746522229545330400,6.366330322265625,-1.5394768714904785,0.9165635704994202,3.2798469066619873
1746522229555317500,6.3763173828125,-1.4285149574279785,0.8590334057807922,3.2455434799194336
1746522229565305300,6.386305419921875,-1.29523503780365,0.75473552942276,3.096156358718872
1746522229575293400,6.39629345703125,-1.088547945022583,0.7374942302703857,2.878769874572754
1746522229585281500,6.406281494140625,-0.8134883046150208,0.769787609577179,2.6736254692077637
1746522229595268600,6.4162685546875,-0.5407827496528625,0.710158109664917,2.506342649459839
1746522229605256400,6.42625634765625,-0.2739107608795166,0.602100133895874,2.3571937084198
1746522229615244300,6.436244384765625,-0.00608464889228344,0.5571433305740356,2.1902008056640625
1746522229625231600,6.446231689453125,0.2026611715555191,0.6732546091079712,1.9717416763305664
1746522229635219500,6.456219482421875,0.38946327567100525,1.0177160501480103,1.6623258590698242
1746522229645207300,6.466207275390625,0.5619131922721863,1.5998140573501587,1.2687201499938965
1746522229655195400,6.4761953125,0.5960408449172974,2.3016085624694824,0.8934301137924194
1746522229665182500,6.486182373046875,0.5035524368286133,3.028822660446167,0.6384972929954529
1746522229675170300,6.49617041015625,0.4112555682659149,3.7551751136779785,0.5343493223190308
1746522229685158400,6.506158447265625,0.43974512815475464,4.2621893882751465,0.5197969079017639
1746522229695146500,6.516146484375,0.6688361167907715,4.246254920959473,0.5536755323410034
1746522229705133300,6.52613330078125,1.028738021850586,3.72855281829834,0.5401391386985779
1746522229715121400,6.536121337890625,1.5087504386901855,2.9201269149780273,0.25614121556282043
1746522229725109500,6.546109619140625,1.9441646337509155,2.4451851844787598,-0.35949230194091797
1746522229735096600,6.5560966796875,2.0604515075683594,2.6867482662200928,-1.0744932889938354
1746522229745084400,6.56608447265625,1.6627131700515747,3.408228874206543,-1.5352972745895386
1746522229755072500,6.576072509765625,0.8991526365280151,4.302859783172607,-1.6441534757614136
1746522229765060400,6.586060302734375,0.18226252496242523,4.880817890167236,-1.4652764797210693
1746522229775047400,6.59604736328125,-0.15019212663173676,4.832165241241455,-1.1277072429656982
1746522229785035500,6.606035400390625,-0.06184938922524452,4.378508567810059,-0.839519739151001
1746522229795023400,6.6160234375,0.13757450878620148,3.7655727863311768,-0.7158877849578857
1746522229805010400,6.626010498046875,0.21407724916934967,3.117222547531128,-0.711430013179779
1746522229814998300,6.635998291015625,0.17925187945365906,2.6438558101654053,-0.7390024662017822
1746522229824986400,6.645986328125,0.16721612215042114,2.435561418533325,-0.7333572506904602
1746522229834974500,6.655974365234375,0.24622999131679535,2.3987843990325928,-0.6168988347053528
1746522229844961300,6.665961181640625,0.45204028487205505,2.45229434967041,-0.392621248960495
1746522229854949400,6.675949462890625,0.7014983296394348,2.5298233032226562,-0.11463570594787598
1746522229864937500,6.6859375,0.91338050365448,2.5104992389678955,0.16381816565990448
1746522229874924500,6.695924560546875,1.0346273183822632,2.3244786262512207,0.4070742130279541
1746522229884912000,6.705912109375,1.0503811836242676,2.0869312286376953,0.5817536115646362
1746522229894900000,6.71589990234375,0.9842836260795593,1.8713284730911255,0.6928145885467529
1746522229904887800,6.7258876953125,0.8792188167572021,1.6684588193893433,0.759152889251709
1746522229914875100,6.735875244140625,0.7180064916610718,1.3581405878067017,0.7860636115074158
1746522229924863000,6.745863037109375,0.47604772448539734,0.9140813946723938,0.7136272192001343
1746522229934850800,6.755850830078125,0.214002788066864,0.469309538602829,0.5224599242210388
1746522229944839000,6.7658388671875,0.029801707714796066,0.0736827701330185,0.29605141282081604
1746522229954826000,6.775825927734375,0.00038229997153393924,-0.2558879554271698,0.15673641860485077
1746522229964813800,6.785813720703125,0.06650996953248978,-0.5141639709472656,0.10977956652641296
1746522229974802000,6.795802001953125,0.17318210005760193,-0.7489919066429138,0.08168482035398483
1746522229984789000,6.8057890625,0.2946034371852875,-0.8889985084533691,0.027819031849503517
1746522229994777000,6.815777099609375,0.3939979374408722,-0.9187058210372925,0.013660335913300514
1746522230004765000,6.825764892578125,0.3982967436313629,-0.9070310592651367,0.05063946545124054
1746522230014752000,6.835751953125,0.23810891807079315,-0.9658648371696472,0.06815294176340103
1746522230024740000,6.845739990234375,0.007370938081294298,-1.159506916999817,0.008074097335338593
1746522230034728000,6.85572802734375,-0.16078691184520721,-1.4305347204208374,-0.09912639111280441
1746522230044715800,6.8657158203125,-0.2554975152015686,-1.7012341022491455,-0.14074201881885529
1746522230054703000,6.875703125,-0.24618148803710938,-2.1718013286590576,0.02055845595896244
1746522230064691000,6.88569091796875,-0.22653250396251678,-2.856783628463745,0.42216750979423523
1746522230074678800,6.8956787109375,-0.30417805910110474,-3.3170063495635986,0.9171373248100281
1746522230084666000,6.905666015625,-0.48215287923812866,-3.1557068824768066,1.3546435832977295
1746522230094654000,6.915654052734375,-0.6901212930679321,-2.3641908168792725,1.6527128219604492
1746522230104641800,6.925641845703125,-0.5468828678131104,-1.6422061920166016,1.7879399061203003
1746522230114630000,6.9356298828125,0.06021608039736748,-1.8374978303909302,1.8177497386932373
1746522230124617000,6.945616943359375,0.687819242477417,-2.4876651763916016,1.6845989227294922
1746522230134605000,6.95560498046875,0.9553473591804504,-3.0986814498901367,1.3614096641540527
1746522230144593000,6.965593017578125,0.8383762836456299,-3.4780378341674805,1.0452663898468018
1746522230154580000,6.975580078125,0.5594202280044556,-3.6040990352630615,0.8768744468688965
1746522230164568000,6.985568115234375,0.2780360281467438,-3.476773262023926,0.8969970345497131
1746522230174556000,6.995555908203125,0.05764908343553543,-3.147249221801758,1.1368086338043213
1746522230184543700,7.005543701171875,-0.11551614105701447,-2.739201784133911,1.5577542781829834
1746522230194531000,7.015531005859375,-0.2562170624732971,-2.3291730880737305,2.0409252643585205
1746522230204519000,7.025518798828125,-0.33037465810775757,-1.9235562086105347,2.5007882118225098
1746522230214506800,7.0355068359375,-0.34146884083747864,-1.58999764919281,2.8851206302642822
1746522230224494000,7.045494140625,-0.33929046988487244,-1.4125494956970215,3.1655213832855225
1746522230234482200,7.055482177734375,-0.31705841422080994,-1.3651604652404785,3.338958263397217
1746522230244469800,7.0654697265625,-0.25076091289520264,-1.3056849241256714,3.370541572570801
1746522230254457900,7.075457763671875,-0.13727512955665588,-1.1497752666473389,3.2264256477355957
1746522230264445200,7.085445068359375,-0.058695126324892044,-0.9602100849151611,2.912907600402832
1746522230274433000,7.09543310546875,-0.06895655393600464,-0.8004677891731262,2.4464356899261475
1746522230284420900,7.1054208984375,-0.15176711976528168,-0.6309587955474854,1.8666036128997803
1746522230294408000,7.115407958984375,-0.32415565848350525,-0.31924352049827576,1.188501000404358
1746522230304396000,7.12539599609375,-0.6321907043457031,0.16081592440605164,0.40314939618110657
1746522230314384000,7.1353837890625,-1.015953540802002,0.6243164539337158,-0.5032816529273987
1746522230324372000,7.1453720703125,-1.3745090961456299,1.0512505769729614,-1.4096643924713135
1746522230334359000,7.155359130859375,-1.5368974208831787,1.4346752166748047,-2.1579060554504395
1746522230344347000,7.165346923828125,-1.465599536895752,1.7299013137817383,-2.6754279136657715
1746522230354335000,7.1753349609375,-1.2371493577957153,1.9599387645721436,-2.9660532474517822
1746522230364322000,7.185322021484375,-0.9318957328796387,2.1299703121185303,-3.0538880825042725
1746522230374310100,7.19531005859375,-0.5923088192939758,2.17305588722229,-2.9494025707244873
1746522230384297700,7.205297607421875,-0.2623522877693176,2.2693073749542236,-2.6493799686431885
1746522230394285000,7.21528515625,-0.08551651239395142,2.5425803661346436,-2.1476891040802
1746522230404273200,7.225273193359375,-0.1644086390733719,3.01461124420166,-1.5678569078445435
1746522230414261000,7.235260986328125,-0.4367205798625946,3.4971437454223633,-1.0728679895401
1746522230424248800,7.245248779296875,-0.7558553218841553,3.7474093437194824,-0.7257652282714844
1746522230434236200,7.255236083984375,-1.033305048942566,3.6993184089660645,-0.5832685232162476
1746522230444224000,7.26522412109375,-1.2217625379562378,3.5082051753997803,-0.6505282521247864
1746522230454211800,7.2752119140625,-1.2561479806900024,3.1957144737243652,-0.8090744614601135
1746522230464199200,7.28519921875,-1.137542486190796,2.892536163330078,-0.9511833190917969
1746522230474187000,7.29518701171875,-0.9587293267250061,2.6490743160247803,-1.0306116342544556
1746522230484174800,7.3051748046875,-0.7229841351509094,2.4599874019622803,-1.0549449920654297
1746522230494163000,7.315162841796875,-0.41258448362350464,2.2861921787261963,-1.0392520427703857
1746522230504150000,7.32514990234375,-0.05170620232820511,2.095515012741089,-0.9715439677238464
1746522230514137900,7.335137939453125,0.2659947872161865,1.8956947326660156,-0.8561300039291382
1746522230524126000,7.3451259765625,0.48380035161972046,1.7010873556137085,-0.7247638702392578
1746522230534113000,7.355113037109375,0.6183080673217773,1.567679762840271,-0.6370161175727844
1746522230544101000,7.36510107421875,0.6883988380432129,1.4682812690734863,-0.5845392346382141
1746522230554089000,7.3750888671875,0.684425950050354,1.4410136938095093,-0.5630927681922913
1746522230564076000,7.385075927734375,0.6399982571601868,1.4237152338027954,-0.5700879096984863
1746522230574064000,7.395064208984375,0.5897942185401917,1.3516522645950317,-0.5977514982223511
1746522230584052000,7.405052001953125,0.5666669607162476,1.2373112440109253,-0.6368043422698975
1746522230594039800,7.415039794921875,0.574404239654541,1.149973750114441,-0.6386685967445374
1746522230604027100,7.425027099609375,0.589236319065094,1.0728667974472046,-0.5432285070419312
1746522230614015000,7.435014892578125,0.5701717734336853,0.8855651021003723,-0.3550966680049896
1746522230624002800,7.4450029296875,0.4880930483341217,0.5363860130310059,-0.1535041779279709
1746522230633990100,7.454990234375,0.3961263597011566,0.14480683207511902,0.029681624844670296
1746522230643978000,7.46497802734375,0.33002129197120667,-0.22761170566082,0.22710195183753967
1746522230653965800,7.4749658203125,0.27750563621520996,-0.5346089601516724,0.3962489068508148
1746522230663954000,7.484953857421875,0.2537735402584076,-0.8617141246795654,0.42673811316490173
1746522230673941000,7.49494091796875,0.3312861919403076,-1.296991229057312,0.2635694444179535
1746522230683929000,7.50492919921875,0.49453604221343994,-1.8229279518127441,-0.10279134660959244
1746522230693917000,7.5149169921875,0.6459546089172363,-2.3664917945861816,-0.5918683409690857
1746522230703904000,7.524904052734375,0.7001583576202393,-2.8555994033813477,-1.000551700592041
1746522230713892000,7.53489208984375,0.5746092200279236,-3.1971213817596436,-1.132659673690796
1746522230723880000,7.5448798828125,0.16164490580558777,-3.182993173599243,-0.974101185798645
1746522230733867000,7.554866943359375,-0.5328592658042908,-2.724944591522217,-0.61030513048172
1746522230743855000,7.564855224609375,-1.2311327457427979,-2.171621084213257,-0.08032213896512985
1746522230753843000,7.574843017578125,-1.3761337995529175,-2.1658408641815186,0.5413011908531189
1746522230763830800,7.584830810546875,-0.767223596572876,-2.7031490802764893,1.206551194190979
1746522230773818000,7.594818115234375,0.07870287448167801,-3.2598319053649902,1.8936065435409546
1746522230783806000,7.604805908203125,0.5376221537590027,-3.519597053527832,2.453016757965088
1746522230793793800,7.614793701171875,0.6025663018226624,-3.495561361312866,2.780696153640747
1746522230803781000,7.624781005859375,0.4647001028060913,-3.3535194396972656,2.9280176162719727
1746522230813769000,7.63476904296875,0.28313830494880676,-3.252655506134033,2.9571943283081055
1746522230823757000,7.644757080078125,0.07568284869194031,-3.2157392501831055,2.9223461151123047
1746522230833745000,7.654744873046875,-0.16250574588775635,-3.061976432800293,2.9211833477020264
1746522230843732000,7.66473193359375,-0.3773934245109558,-2.7866437435150146,3.0322656631469727
1746522230853720000,7.674719970703125,-0.5272145867347717,-2.535027027130127,3.2175309658050537
1746522230863708000,7.6847080078125,-0.5839731693267822,-2.415412425994873,3.37876296043396
1746522230873695000,7.694695068359375,-0.5564610958099365,-2.4162542819976807,3.448542833328247
1746522230883683300,7.704683349609375,-0.4574657678604126,-2.3706371784210205,3.3763351440429688
1746522230893671400,7.71467138671875,-0.33661124110221863,-2.16770339012146,3.1476094722747803
1746522230903658500,7.724658447265625,-0.27151426672935486,-1.8314383029937744,2.7687864303588867
1746522230913646300,7.734646240234375,-0.3033033609390259,-1.4151196479797363,2.270355463027954
1746522230923634400,7.744634521484375,-0.3694095313549042,-0.8963088989257812,1.6512978076934814
1746522230933622500,7.75462255859375,-0.4195941388607025,-0.25144338607788086,0.8839913606643677
1746522230943609600,7.764609619140625,-0.49374184012413025,0.5045669078826904,-0.04213990271091461
1746522230953597400,7.774597412109375,-0.6385900378227234,1.0914891958236694,-1.1030197143554688
1746522230963585500,7.78458544921875,-0.9099683165550232,1.3777692317962646,-2.2839388847351074
1746522230973572600,7.794572509765625,-1.1584887504577637,1.3266907930374146,-3.4368271827697754
1746522230983560400,7.804560546875,-1.2957758903503418,0.9669303894042969,-4.321761608123779
1746522230993548300,7.81454833984375,-1.354326605796814,0.7304003834724426,-4.8051438331604
1746522231003535600,7.82453564453125,-1.2509223222732544,0.9916906952857971,-4.768449783325195
1746522231013523500,7.8345234375,-0.836117148399353,1.5855481624603271,-4.159682273864746
1746522231023511300,7.84451123046875,-0.19729909300804138,2.13802433013916,-3.041036605834961
1746522231033499400,7.85449951171875,0.5073293447494507,2.287529706954956,-1.700348973274231
1746522231043486700,7.86448681640625,1.167418122291565,2.268874168395996,-0.5934162139892578
1746522231053474300,7.874474365234375,1.613486409187317,2.5359737873077393,-0.024481698870658875
1746522231063462400,7.88446240234375,1.4729814529418945,3.1986422538757324,-0.004855192732065916
1746522231073449700,7.89444970703125,0.7930334806442261,3.779407262802124,-0.33841025829315186
1746522231083437600,7.9044375,-0.01422892790287733,4.019279956817627,-0.6740714311599731
1746522231093425400,7.91442529296875,-0.6268284320831299,3.9277257919311523,-0.7870704531669617
1746522231103412500,7.92441259765625,-0.8957951068878174,3.5861027240753174,-0.6926690340042114
1746522231113400600,7.934400634765625,-0.8232282400131226,3.168778896331787,-0.555357813835144
1746522231123388400,7.944388427734375,-0.49966081976890564,2.8141045570373535,-0.5120779871940613
1746522231133376500,7.95437646484375,-0.11299486458301544,2.476189613342285,-0.5744364261627197
1746522231143363600,7.964363525390625,0.22607524693012238,2.121145486831665,-0.7215701937675476
1746522231153351400,7.974351318359375,0.4769596755504608,1.8001832962036133,-0.9655338525772095
1746522231163339500,7.984339599609375,0.6708438992500305,1.5617196559906006,-1.3355193138122559
1746522231173326600,7.99432666015625,0.8409588932991028,1.3732717037200928,-1.7900002002716064
1746522231183314700,8.004314697265626,1.010013461112976,1.2007274627685547,-2.20485520362854
1746522231193302300,8.01430224609375,1.1252803802490234,1.057010293006897,-2.4297919273376465
1746522231203289600,8.02428955078125,1.154299020767212,0.9210224151611328,-2.389242172241211
1746522231213277700,8.034277587890625,1.1256591081619263,0.7609054446220398,-2.084818124771118
1746522231223265500,8.044265625,1.0573453903198242,0.5695959329605103,-1.5513995885849
1746522231233253400,8.05425341796875,0.933708906173706,0.35627326369285583,-0.8568465709686279
1746522231243240700,8.06424072265625,0.7600002884864807,0.13111072778701782,-0.06546539813280106
1746522231253228500,8.074228515625,0.5764509439468384,-0.037908922880887985,0.7037689685821533
1746522231263216400,8.08421630859375,0.4095068573951721,-0.11740857362747192,1.3212958574295044
1746522231273203700,8.09420361328125,0.2909088432788849,-0.1404086947441101,1.6717231273651123
1746522231283191600,8.104191650390625,0.2814486622810364,-0.11078958958387375,1.6886316537857056
1746522231293178600,8.1141787109375,0.35130470991134644,-0.10936959087848663,1.385396122932434
1746522231303166500,8.12416650390625,0.3849755823612213,-0.2383590042591095,0.8456551432609558
1746522231313154600,8.134154541015626,0.3582114577293396,-0.578328549861908,0.17420515418052673
1746522231323141600,8.1441416015625,0.30779382586479187,-1.1762466430664062,-0.5250187516212463
1746522231333129500,8.15412939453125,0.31920406222343445,-1.938298225402832,-1.2223883867263794
1746522231343117600,8.16411767578125,0.447414755821228,-2.6848714351654053,-1.800411343574524
1746522231353104600,8.174104736328125,0.5974810719490051,-3.263129711151123,-2.060824394226074
1746522231363092500,8.184092529296874,0.6733025908470154,-3.637925148010254,-1.8872854709625244
1746522231373080600,8.19408056640625,0.5603669285774231,-3.635664463043213,-1.336259126663208
1746522231383067600,8.204067626953124,0.10076285898685455,-2.915938377380371,-0.5468375086784363
1746522231393055500,8.214055419921875,-0.6237687468528748,-1.6731826066970825,0.45079541206359863
1746522231403043600,8.224043701171874,-1.193812608718872,-0.9998269081115723,1.5763483047485352
1746522231413031700,8.23403173828125,-1.026698112487793,-1.714069128036499,2.6486523151397705
1746522231423018500,8.2440185546875,-0.25274142622947693,-3.0403964519500732,3.4536609649658203
1746522231433006600,8.254006591796875,0.5310920476913452,-3.8869082927703857,3.8438360691070557
1746522231442994700,8.26399462890625,0.9861927032470703,-4.116281509399414,3.859050989151001
1746522231452981500,8.2739814453125,1.0615912675857544,-3.9552853107452393,3.566699743270874
1746522231462969600,8.283969482421876,0.9203454852104187,-3.7205984592437744,3.054452896118164
1746522231472957700,8.293957763671875,0.640450119972229,-3.5576980113983154,2.454900026321411
1746522231482944500,8.303944580078126,0.2874675989151001,-3.521209955215454,1.9167717695236206
1746522231492932600,8.3139326171875,-0.01442799810320139,-3.566409111022949,1.5493755340576172
1746522231502920400,8.32392041015625,-0.21897608041763306,-3.565178394317627,1.382994294166565
1746522231512908500,8.333908447265625,-0.3850558400154114,-3.4591455459594727,1.371126651763916
1746522231522895600,8.3438955078125,-0.5056831240653992,-3.2735342979431152,1.4598597288131714
1746522231532883500,8.353883544921874,-0.5599324107170105,-2.9531495571136475,1.5719783306121826
1746522231542871600,8.36387158203125,-0.5599052309989929,-2.4004671573638916,1.6246881484985352
1746522231552858600,8.373858642578124,-0.5351378321647644,-1.662736177444458,1.5625627040863037
1746522231562846500,8.383846435546875,-0.5435062646865845,-0.8984582424163818,1.3816869258880615
1746522231572834600,8.39383447265625,-0.5711960792541504,-0.2609117925167084,1.1106818914413452
1746522231582821600,8.403821533203125,-0.6006919145584106,0.24018166959285736,0.7768517136573792
1746522231592809500,8.4138095703125,-0.681595504283905,0.6456294059753418,0.35167092084884644
1746522231602797600,8.423797607421875,-0.8207365870475769,1.0281435251235962,-0.21728122234344482
1746522231612785700,8.43378564453125,-1.0141665935516357,1.5038517713546753,-0.8947787880897522
1746522231622772500,8.4437724609375,-1.2393200397491455,2.0007102489471436,-1.5931174755096436
1746522231632760600,8.453760498046876,-1.42454993724823,2.3711421489715576,-2.1992530822753906
1746522231642748700,8.463748779296875,-1.49940824508667,2.741602897644043,-2.6239871978759766
1746522231652735500,8.473735595703126,-1.4571032524108887,3.276503801345825,-2.7999672889709473
1746522231662723600,8.4837236328125,-1.3761836290359497,3.8820178508758545,-2.7507684230804443
1746522231672711700,8.493711669921876,-1.2307220697402954,4.317165374755859,-2.547614812850952
1746522231682698500,8.503698486328124,-0.9937300682067871,4.352413177490234,-2.269643783569336
1746522231692686600,8.5136865234375,-0.7271389961242676,3.9462287425994873,-2.0397655963897705
1746522231702674400,8.52367431640625,-0.5574221014976501,3.4401612281799316,-2.0212295055389404
1746522231712661500,8.53366162109375,-0.5980920195579529,3.1851394176483154,-2.261242389678955
1746522231722649600,8.543649658203124,-0.8788999319076538,3.140073537826538,-2.5334651470184326
1746522231732637400,8.553637451171875,-1.18115234375,3.184601306915283,-2.5403687953948975
1746522231742625500,8.56362548828125,-1.3966045379638672,3.1230599880218506,-2.180992364883423
1746522231752612600,8.573612548828125,-1.5150235891342163,2.8123669624328613,-1.5528525114059448
1746522231762600400,8.583600341796876,-1.4548078775405884,2.4496617317199707,-0.8303489089012146
1746522231772588500,8.593588623046875,-1.2264958620071411,2.2548325061798096,-0.23872604966163635
1746522231782575600,8.60357568359375,-0.9507538676261902,2.1561784744262695,0.12406253814697266
1746522231792563500,8.6135634765625,-0.7280635833740234,2.048245429992676,0.2968001663684845
1746522231802551600,8.623551513671876,-0.6079515218734741,1.8158583641052246,0.3324180841445923
1746522231812538400,8.633538330078125,-0.5190520286560059,1.590715765953064,0.23641091585159302
1746522231822526500,8.6435263671875,-0.3601457476615906,1.4487838745117188,0.0175656508654356
1746522231832514600,8.6535146484375,-0.13974791765213013,1.3305436372756958,-0.26738473773002625
1746522231842502700,8.663502685546876,0.08399515599012375,1.232945442199707,-0.6041388511657715
1746522231852489500,8.673489501953124,0.2656128406524658,1.1564836502075195,-0.9926329851150513
1746522231862477600,8.6834775390625,0.4081380367279053,1.09861159324646,-1.3692690134048462
1746522231872465700,8.693465576171874,0.5042548775672913,1.0457860231399536,-1.637966513633728
1746522231882453200,8.703453369140625,0.5696884989738464,0.9557108283042908,-1.7391293048858643
1746522231892441000,8.713441162109374,0.5956912040710449,0.7810133099555969,-1.6964532136917114
1746522231902429200,8.72342919921875,0.591641902923584,0.47866037487983704,-1.5789433717727661
1746522231912416000,8.733416015625,0.5699816346168518,0.13531659543514252,-1.413575530052185
1746522231922404000,8.743404052734375,0.5070013403892517,-0.1279595047235489,-1.2205253839492798
1746522231932392200,8.75339208984375,0.42451342940330505,-0.3915918171405792,-1.094107747077942
1746522231942379000,8.76337890625,0.3414507806301117,-0.789727509021759,-1.2059061527252197
1746522231952367000,8.7733671875,0.29520565271377563,-1.2499334812164307,-1.5889688730239868
1746522231962355200,8.783355224609375,0.33569130301475525,-1.8209527730941772,-2.083233594894409
1746522231972343000,8.793343017578126,0.5106964707374573,-2.269927978515625,-2.4257373809814453
1746522231982330000,8.803330078125,0.6139466762542725,-2.514500379562378,-2.3850533962249756
1746522231992318200,8.813318115234376,0.5350080728530884,-2.6710758209228516,-1.9474670886993408
1746522232002306000,8.82330615234375,0.44072526693344116,-2.8449349403381348,-1.2364176511764526
1746522232012293000,8.833293212890625,0.4870973527431488,-3.3205831050872803,-0.48287254571914673
1746522232022281200,8.84328125,0.7156373262405396,-3.961761236190796,0.026599206030368805
1746522232032269000,8.85326904296875,1.0701769590377808,-4.4437785148620605,0.2094065397977829
1746522232042256100,8.863256103515624,1.257607102394104,-4.419422149658203,0.4192921221256256
1746522232052244200,8.873244140625,0.988296389579773,-4.093532562255859,1.0825557708740234
1746522232062232000,8.883232177734374,0.26890650391578674,-3.3159782886505127,2.1972572803497314
1746522232072219100,8.89321923828125,-0.572381317615509,-1.9916102886199951,3.666355848312378
1746522232082207200,8.903207275390624,-1.041388750076294,-1.0649583339691162,5.380125999450684
1746522232092195000,8.913195068359375,-0.6908000707626343,-1.0729669332504272,6.940291404724121
1746522232102183200,8.92318310546875,0.3791073262691498,-1.6431046724319458,7.961949348449707
1746522232112170000,8.933169921875,1.3669136762619019,-2.0629992485046387,8.305546760559082
1746522232122158000,8.943157958984376,1.7941161394119263,-2.1388983726501465,7.856151103973389
1746522232132146200,8.953146240234375,1.7360055446624756,-2.212740421295166,6.648571968078613
1746522232142133000,8.963133056640626,1.383468747138977,-2.373908758163452,4.9781317710876465
1746522232152121000,8.97312109375,0.9606938362121582,-2.5333456993103027,3.279172420501709
1746522232162109200,8.983109130859376,0.6521964073181152,-2.5181329250335693,1.9134724140167236
1746522232172096000,8.993095947265624,0.530238151550293,-2.325772523880005,0.9791351556777954
1746522232182084000,9.003083984375,0.573275625705719,-2.1004550457000732,0.39243221282958984
1746522232192072200,9.013072265625,0.6857703328132629,-2.034226417541504,0.05770428106188774
1746522232202059000,9.02305908203125,0.7237062454223633,-2.170999050140381,-0.14385733008384705
1746522232212047000,9.033047119140624,0.6391639709472656,-2.4302637577056885,-0.2721860110759735
1746522232222035200,9.04303515625,0.46323665976524353,-2.773878335952759,-0.3468213677406311
1746522232232023000,9.05302294921875,0.24953702092170715,-2.9340505599975586,-0.3624494671821594
1746522232242010000,9.063010009765625,0.04759085178375244,-2.813812017440796,-0.2951820194721222
1746522232251998200,9.072998291015624,-0.12653380632400513,-2.5065793991088867,-0.16766133904457092
1746522232261986000,9.082986083984375,-0.2577941119670868,-2.026768922805786,-0.054694585502147675
1746522232271973000,9.09297314453125,-0.4504081606864929,-1.3579297065734863,-0.06526216119527817
1746522232281961200,9.102961181640625,-0.7319186329841614,-0.47669678926467896,-0.2939627170562744
1746522232291949000,9.112948974609376,-1.0380043983459473,0.3780658543109894,-0.7211629152297974
1746522232301936000,9.12293603515625,-1.3298410177230835,0.98319011926651,-1.2789114713668823
1746522232311924000,9.132924072265626,-1.4701896905899048,1.2408956289291382,-1.9175920486450195
1746522232321912000,9.142912109375,-1.4630439281463623,1.250110387802124,-2.600372791290283
1746522232331899100,9.152899169921875,-1.2707425355911255,0.9768233895301819,-3.212289333343506
1746522232341887000,9.162886962890624,-0.9053443074226379,0.739214301109314,-3.6387076377868652
1746522232351875000,9.172875,-0.5726309418678284,0.818926990032196,-3.8049190044403076
1746522232361862100,9.182862060546874,-0.37061604857444763,1.483557105064392,-3.8062121868133545
1746522232371850000,9.19285009765625,-0.38391461968421936,2.8349528312683105,-3.6924054622650146
1746522232381838000,9.202838134765624,-0.7330478429794312,4.184340000152588,-3.3727378845214844
1746522232391826200,9.212826171875,-1.2108007669448853,4.856439590454102,-2.761107921600342
1746522232401813000,9.22281298828125,-1.5464341640472412,4.791837692260742,-1.9634640216827393
1746522232411801000,9.232801025390625,-1.6416301727294922,4.258865833282471,-1.1376535892486572
1746522232421789200,9.2427890625,-1.4748821258544922,3.7849340438842773,-0.39896997809410095
1746522232431776000,9.25277587890625,-1.1064943075180054,3.710181713104248,0.27318719029426575
1746522232441764000,9.26276416015625,-0.7800509929656982,3.8628830909729004,0.9343392848968506
1746522232451752200,9.272752197265625,-0.6114866137504578,4.026025772094727,1.4571200609207153
1746522232461739000,9.282739013671875,-0.5037878751754761,4.254230499267578,1.6334186792373657
1746522232471727000,9.29272705078125,-0.37187430262565613,4.508969783782959,1.403230905532837
1746522232481715200,9.302715087890626,-0.20124691724777222,4.6939215660095215,0.8158981800079346
1746522232491702000,9.312701904296874,0.03348622843623161,4.729331970214844,-0.10750681906938553
1746522232501690000,9.322690185546875,0.3846847414970398,4.4652419090271,-1.1924000978469849
1746522232511678000,9.332677978515624,0.8409308195114136,3.8383007049560547,-2.207406997680664
1746522232521665000,9.3426650390625,1.2705847024917603,2.9558253288269043,-3.0128421783447266
1746522232531653000,9.352653076171874,1.5409581661224365,1.947572946548462,-3.494072437286377
1746522232541641000,9.362640869140625,1.5533411502838135,1.2082704305648804,-3.5815203189849854
1746522232551629000,9.372629150390624,1.303693175315857,0.9947052597999573,-3.218580961227417
1746522232561616100,9.3826162109375,0.9794854521751404,1.0230369567871094,-2.4717442989349365
1746522232571604000,9.39260400390625,0.8191198110580444,0.9049111008644104,-1.5450021028518677
1746522232581592000,9.402592041015625,0.9806948900222778,0.7650304436683655,-0.765317440032959
1746522232591579100,9.4125791015625,1.267214059829712,0.6689673662185669,-0.26099303364753723
1746522232601567000,9.42256689453125,1.346623420715332,0.4606458842754364,-0.06347091495990753
1746522232611555000,9.43255517578125,1.1865710020065308,0.18939733505249023,-0.1775578111410141
1746522232621542000,9.4425419921875,0.8787345886230469,-0.07666629552841187,-0.4798894226551056
1746522232631530000,9.452530029296875,0.49280232191085815,-0.38665857911109924,-0.751833438873291
1746522232641518000,9.46251806640625,0.11508166044950485,-0.6122557520866394,-0.8214375376701355
1746522232651505000,9.4725048828125,-0.11908693611621857,-0.827782392501831,-0.6460564136505127
1746522232661493000,9.482492919921874,-0.11620672792196274,-1.146683692932129,-0.3775160014629364
1746522232671481000,9.492481201171875,0.16621994972229004,-1.6979317665100098,-0.22368699312210083
1746522232681469200,9.50246923828125,0.5597078800201416,-2.377523422241211,-0.34401845932006836
1746522232691456000,9.5124560546875,0.8988993167877197,-3.040822744369507,-0.7003368139266968
1746522232701444000,9.522444091796874,0.9473478198051453,-3.35137939453125,-0.932481586933136
1746522232711432000,9.532431884765625,0.49505162239074707,-3.20961332321167,-0.6813946962356567
1746522232721419000,9.5424189453125,-0.3341752588748932,-2.5001938343048096,-0.02201702818274498
1746522232731407000,9.552406982421875,-1.2089359760284424,-1.6151610612869263,0.92908775806427
1746522232741395000,9.56239501953125,-1.3614813089370728,-1.6205097436904907,2.1847763061523438
1746522232751382000,9.572382080078125,-0.5158913731575012,-2.449582576751709,3.556039571762085
1746522232761370000,9.5823701171875,0.6291896104812622,-3.1676645278930664,4.712696552276611
1746522232771358000,9.59235791015625,1.2384666204452515,-3.499622344970703,5.384310722351074
1746522232781345000,9.602344970703125,1.3157281875610352,-3.443951368331909,5.552178382873535
1746522232791333000,9.6123330078125,1.1819978952407837,-3.036997079849243,5.463606357574463
1746522232801321000,9.622321044921875,1.0274873971939087,-2.524141550064087,5.312946319580078
1746522232811308000,9.63230810546875,0.9190793037414551,-2.1019325256347656,5.158192157745361
1746522232821295900,9.6422958984375,0.8259464502334595,-1.8201944828033447,4.972681045532227
1746522232831284000,9.652283935546874,0.6917398571968079,-1.6128710508346558,4.618571758270264
1746522232841272000,9.66227197265625,0.5663707852363586,-1.60799241065979,3.920649766921997
1746522232851259000,9.6722587890625,0.47382912039756775,-1.8486199378967285,2.9186623096466064
1746522232861247000,9.6822470703125,0.3783784806728363,-2.2608933448791504,1.863653302192688
1746522232871235000,9.692235107421874,0.24884070456027985,-2.535074472427368,0.9164159297943115
1746522232881222000,9.702221923828125,0.1299276351928711,-2.5507278442382812,0.09422596544027328
1746522232891209700,9.712209716796876,0.036554452031850815,-2.3330583572387695,-0.5264843702316284
1746522232901197800,9.72219775390625,-0.07743602991104126,-1.8770803213119507,-0.9337821006774902
1746522232911185000,9.732184814453126,-0.33776140213012695,-1.2084380388259888,-1.2228413820266724
1746522232921172700,9.7421728515625,-0.8491665720939636,-0.3334740400314331,-1.4978772401809692
1746522232931160800,9.752160888671876,-1.6346818208694458,0.6759796738624573,-1.7874380350112915
1746522232941148000,9.76214794921875,-2.483064651489258,1.56668221950531,-2.029331922531128
1746522232951136000,9.772135986328125,-3.1275720596313477,2.2281813621520996,-2.185237169265747
1746522232961123800,9.782123779296874,-3.4173922538757324,2.7598483562469482,-2.2361817359924316
1746522232971111000,9.79211083984375,-3.3181097507476807,3.1313867568969727,-2.2539963722229004
1746522232981099000,9.80209912109375,-2.921663999557495,3.49135160446167,-2.3411896228790283
1746522232991086800,9.8120869140625,-2.3741514682769775,3.957076072692871,-2.5148913860321045
1746522233001074700,9.82207470703125,-1.888754963874817,4.467772960662842,-2.787400722503662
1746522233011062000,9.83206201171875,-1.6811751127243042,5.050719261169434,-3.1368250846862793
1746522233021049900,9.8420498046875,-1.8574161529541016,5.43560266494751,-3.4868836402893066
1746522233031037700,9.85203759765625,-2.3647501468658447,5.603312015533447,-3.810924530029297
1746522233041025000,9.86202490234375,-2.9925737380981445,5.6483988761901855,-3.929352045059204
1746522233051012900,9.872012939453125,-3.334895610809326,5.335111618041992,-3.698636293411255
1746522233061000700,9.882000732421876,-3.1586127281188965,4.669576644897461,-3.3446574211120605
1746522233070988000,9.891988037109375,-2.6171047687530518,4.0851898193359375,-3.1172358989715576
1746522233080976000,9.901975830078126,-2.119105815887451,3.556342124938965,-3.088930606842041
1746522233090964000,9.9119638671875,-1.8687496185302734,3.097726345062256,-3.293316125869751
1746522233100950800,9.92195068359375,-1.7649084329605103,2.7169182300567627,-3.550178289413452
1746522233110939000,9.93193896484375,-1.557077169418335,2.3616175651550293,-3.6150145530700684
1746522233120927000,9.941927001953125,-1.1942603588104248,1.9803612232208252,-3.4213805198669434
1746522233130913800,9.951913818359374,-0.7962709069252014,1.591498851776123,-2.9722912311553955
1746522233140902000,9.96190185546875,-0.39492055773735046,1.3466856479644775,-2.26965594291687
1746522233150890000,9.971889892578124,-0.07800611853599548,1.204538106918335,-1.398889422416687
1746522233160877800,9.9818779296875,0.12152855843305588,1.0807578563690186,-0.5566657781600952
1746522233170865000,9.991864990234374,0.22623006999492645,1.0126559734344482,0.12113575637340546
1746522233180853000,10.00185302734375,0.2505415081977844,0.9507952928543091,0.5949763059616089
1746522233190840800,10.0118408203125,0.22029942274093628,0.866830050945282,0.8108623623847961
1746522233200828000,10.021827880859375,0.2044573426246643,0.714915931224823,0.7556092143058777
1746522233210816000,10.03181591796875,0.24572692811489105,0.49729427695274353,0.5597713589668274
1746522233220803800,10.041803955078125,0.3483976423740387,0.1891002357006073,0.36026549339294434
1746522233230791000,10.051791015625,0.489775151014328,-0.14409279823303223,0.21907882392406464
1746522233240779000,10.061779052734375,0.6288504600524902,-0.46784770488739014,0.15555258095264435
1746522233250766800,10.071766845703126,0.7142044305801392,-0.8145050406455994,0.17020565271377563
1746522233260754000,10.08175390625,0.6487985253334045,-1.1793068647384644,0.22502735257148743
1746522233270742000,10.091741943359375,0.4777044653892517,-1.5628035068511963,0.3278355598449707
1746522233280729900,10.101729736328124,0.22738038003444672,-1.8712358474731445,0.4516850709915161
1746522233290717000,10.111717041015625,0.04749929532408714,-1.996727466583252,0.4729442596435547
1746522233300704800,10.121704833984374,0.10183790326118469,-2.0272409915924072,0.3883335292339325
1746522233310692900,10.13169287109375,0.401769757270813,-2.152935028076172,0.23444269597530365
1746522233320681000,10.141680908203124,0.7561425566673279,-2.442077875137329,0.034635838121175766
1746522233330667800,10.151667724609375,0.9101305603981018,-2.9169976711273193,-0.13780100643634796
1746522233340655900,10.16165576171875,0.8758018612861633,-3.464876890182495,-0.178818479180336
1746522233350644000,10.17164404296875,0.8691409826278687,-3.952214479446411,0.0313069224357605
1746522233360630800,10.181630859375,0.9972584247589111,-4.1095051765441895,0.5163836479187012
1746522233370619000,10.191618896484375,1.0413662195205688,-3.7452542781829834,1.2432557344436646
1746522233380607000,10.20160693359375,0.7835193276405334,-2.795815944671631,2.078747510910034
1746522233390593800,10.21159375,0.3684774935245514,-1.8238332271575928,2.90777325630188
1746522233400582000,10.221581787109375,0.4640663266181946,-1.5634586811065674,3.7948193550109863
1746522233410570000,10.231570068359375,1.2949539422988892,-1.6307703256607056,4.780043125152588
1746522233420556800,10.241556884765625,2.2549397945404053,-1.3533928394317627,5.599754333496094
1746522233430545000,10.251544921875,2.924382448196411,-0.749633252620697,5.975965976715088
1746522233440533000,10.261532958984375,3.3149971961975098,-0.1058548241853714,5.819690704345703
1746522233450520800,10.271520751953124,3.3962137699127197,0.2557238042354584,5.1234564781188965
1746522233460508000,10.2815078125,3.1973726749420166,0.08423461765050888,4.080438613891602
1746522233470496000,10.29149609375,2.8143515586853027,-0.4465278089046478,2.9844276905059814
1746522233480483800,10.30148388671875,2.4027791023254395,-0.8976774215698242,2.0742225646972656
1746522233490471000,10.311470947265626,2.083364963531494,-1.0956445932388306,1.476960301399231
1746522233500458800,10.321458740234375,1.9343830347061157,-1.0969266891479492,1.0841432809829712
1746522233510446800,10.33144677734375,1.9223772287368774,-1.0723546743392944,0.7650371789932251
1746522233520434000,10.341433837890625,1.9523553848266602,-1.181173324584961,0.43009114265441895
1746522233530421800,10.351421875,1.9959157705307007,-1.3379082679748535,0.09866628795862198
1746522233540409900,10.361409912109375,1.959985375404358,-1.4311237335205078,-0.09269861876964569
1746522233550397000,10.37139697265625,1.750551462173462,-1.4651446342468262,-0.16394250094890594
1746522233560384800,10.381384765625,1.2940824031829834,-1.4105311632156372,-0.15169809758663177
1746522233570372900,10.391372802734375,0.6050302982330322,-1.1171951293945312,-0.06891867518424988
1746522233580360000,10.40135986328125,-0.31431445479393005,-0.4842716455459595,0.00795772671699524
1746522233590347800,10.41134765625,-1.3251370191574097,0.40647104382514954,0.02985983155667782
1746522233600336000,10.4213359375,-2.195361614227295,1.407671570777893,0.0493544340133667
1746522233610324000,10.431323974609375,-2.7232449054718018,2.1661195755004883,0.08053647726774216
1746522233620310800,10.441310791015624,-2.9127464294433594,2.414015769958496,-0.03174665570259094
1746522233630299000,10.451298828125,-2.9760372638702393,2.22247576713562,-0.4209230840206146
1746522233640287000,10.461286865234374,-2.8714816570281982,1.825628399848938,-1.0543253421783447
1746522233650273800,10.471273681640625,-2.6274421215057373,1.5078076124191284,-1.7740799188613892
1746522233660262000,10.481261962890626,-2.3253843784332275,1.3491960763931274,-2.391787052154541
1746522233670250000,10.49125,-1.9497944116592407,1.4226152896881104,-2.703566074371338
1746522233680236800,10.50123681640625,-1.5701922178268433,1.7462079524993896,-2.6826484203338623
1746522233690225000,10.511224853515625,-1.4697459936141968,2.2088048458099365,-2.5184154510498047
1746522233700212700,10.521212646484376,-1.7915089130401611,2.566368818283081,-2.4702794551849365
1746522233710199800,10.53119970703125,-2.2084732055664062,2.753993034362793,-2.636138439178467
1746522233720188000,10.54118798828125,-2.4773664474487305,2.862605333328247,-2.861942768096924
1746522233730175700,10.55117578125,-2.552760601043701,2.8882761001586914,-2.899249792098999
1746522233740163800,10.561163818359375,-2.398500442504883,2.850050210952759,-2.691279649734497
1746522233750151000,10.57115087890625,-1.883811593055725,2.816598653793335,-2.2920022010803223
1746522233760138800,10.581138671875,-1.1086243391036987,2.8161938190460205,-1.8037912845611572
1746522233770126800,10.591126953125,-0.3926013708114624,2.6858365535736084,-1.4126055240631104
1746522233780114000,10.601114013671875,-0.0047668046317994595,2.3645405769348145,-1.3453903198242188
1746522233790101800,10.611101806640624,0.0966736301779747,1.9343243837356567,-1.6852529048919678
1746522233800089900,10.62108984375,0.0756642147898674,1.412845492362976,-2.201934576034546
1746522233810077000,10.631076904296876,0.13000904023647308,0.9073019623756409,-2.621257781982422
1746522233820064800,10.641064697265625,0.2688246965408325,0.538707971572876,-2.795872688293457
1746522233830052900,10.651052978515626,0.43394291400909424,0.3565143346786499,-2.7538652420043945
1746522233840041000,10.661041015625,0.52488774061203,0.3013852834701538,-2.5044617652893066
1746522233850027800,10.67102783203125,0.49709898233413696,0.34849482774734497,-1.9966802597045898
1746522233860015900,10.681015869140625,0.41698843240737915,0.4599023163318634,-1.2184503078460693
1746522233870004000,10.69100390625,0.376453161239624,0.61189866065979,-0.2707277238368988
1746522233879990000,10.700989990234374,0.39102837443351746,0.7379205226898193,0.7130529880523682
1746522233889978000,10.71097802734375,0.4520265758037567,0.7192596197128296,1.576447606086731
1746522233899966000,10.720966064453124,0.5027619004249573,0.6254766583442688,2.148500442504883
1746522233909954000,10.7309541015625,0.4554944336414337,0.46588966250419617,2.2982959747314453
1746522233919941000,10.740941162109374,0.22643756866455078,0.09102178364992142,1.9324662685394287
1746522233929929000,10.750928955078125,-0.11029797047376633,-0.518276035785675,0.9952220916748047
1746522233939917000,10.7609169921875,-0.28955933451652527,-1.394560694694519,-0.2859429717063904
1746522233949904000,10.77090380859375,-0.12820808589458466,-2.4525060653686523,-1.5171109437942505
1746522233959892000,10.78089208984375,0.3832530677318573,-3.551229238510132,-2.3463900089263916
1746522233969880000,10.790880126953125,0.9363986849784851,-4.4862236976623535,-2.61623477935791
1746522233979867000,10.800866943359376,1.2712125778198242,-4.985696315765381,-2.3495748043060303
1746522233989855000,10.81085498046875,1.3511005640029907,-5.207575798034668,-1.5802223682403564
1746522233999843000,10.820843017578126,1.1246339082717896,-5.175310134887695,-0.432017058134079
1746522234009831200,10.8308310546875,0.5287110209465027,-4.775874614715576,0.9033252596855164
1746522234019818000,10.84081787109375,-0.2494736611843109,-3.941758632659912,2.187798500061035
1746522234029806000,10.85080615234375,-0.6578356623649597,-2.8698439598083496,3.2621963024139404
1746522234039794000,10.8607939453125,-0.11354357749223709,-2.4502923488616943,4.088807106018066
1746522234049781000,10.870781005859374,1.3149354457855225,-2.8713126182556152,4.6022443771362305
1746522234059769000,10.88076904296875,2.5564591884613037,-3.369389533996582,4.68468713760376
1746522234069757000,10.8907568359375,3.0821845531463623,-3.640286445617676,4.355031967163086
1746522234079744000,10.900743896484375,3.062501907348633,-3.681561231613159,3.6744983196258545
1746522234089732000,10.910732177734374,2.731729030609131,-3.695423126220703,2.7218103408813477
1746522234099720000,10.920719970703125,2.2442328929901123,-3.746492385864258,1.7270617485046387
1746522234109708000,10.9307080078125,1.695511817932129,-3.806370973587036,0.9761044979095459
1746522234119695000,10.940695068359375,1.1080694198608398,-3.772853374481201,0.5948714017868042
1746522234129683000,10.950682861328126,0.5754821300506592,-3.636172294616699,0.6062408089637756
1746522234139671000,10.960671142578125,0.17065131664276123,-3.3756730556488037,1.0232089757919312
1746522234149658000,10.970658203125,-0.07073649764060974,-3.0191967487335205,1.7142835855484009
1746522234159646000,10.98064599609375,-0.1034526377916336,-2.5891079902648926,2.4647128582000732
1746522234169634000,10.990634033203126,-0.00922537874430418,-2.0805349349975586,3.017300844192505
1746522234179620900,11.000620849609374,0.09244505316019058,-1.524255394935608,3.1794393062591553
1746522234189609000,11.01060888671875,0.0794466957449913,-1.1011332273483276,2.9321370124816895
1746522234199597000,11.02059716796875,-0.14001667499542236,-0.8809880614280701,2.3703808784484863
1746522234209585200,11.030585205078125,-0.6130359768867493,-0.6621166467666626,1.566787600517273
1746522234219572000,11.040572021484374,-1.2737404108047485,-0.2597731649875641,0.5635411143302917
1746522234229560000,11.05056005859375,-1.9597833156585693,0.3633475601673126,-0.49421438574790955
1746522234239548000,11.0605478515625,-2.5418975353240967,1.0672378540039062,-1.4283332824707031
1746522234249535000,11.070534912109375,-2.9538772106170654,1.6358399391174316,-2.181694746017456
1746522234259523000,11.080523193359374,-3.1239895820617676,2.0448997020721436,-2.7853453159332275
1746522234269511000,11.090510986328125,-2.985252857208252,2.1687116622924805,-3.2544357776641846
1746522234279498000,11.100498046875,-2.5982487201690674,1.996340036392212,-3.608339309692383
1746522234289486000,11.110486083984375,-2.1172873973846436,1.6984063386917114,-3.866506338119507
1746522234299474000,11.120473876953126,-1.6110649108886719,1.5665161609649658,-3.972066640853882
1746522234309462000,11.1304619140625,-1.162795066833496,1.8336890935897827,-3.83095121383667
1746522234319449000,11.140448974609376,-0.8704059720039368,2.3575031757354736,-3.40924334526062
1746522234329437000,11.15043701171875,-0.7761196494102478,2.9446098804473877,-2.7944698333740234
1746522234339425000,11.160425048828126,-0.8444486856460571,3.6090877056121826,-2.235368490219116
1746522234349412000,11.170412109375,-1.1351138353347778,4.246436595916748,-1.9998308420181274
1746522234359400000,11.18039990234375,-1.5342376232147217,4.53665828704834,-2.1515109539031982
1746522234369388000,11.190387939453124,-1.7667397260665894,4.383548259735107,-2.503267765045166
1746522234379375000,11.200375,-1.7066291570663452,3.945024251937866,-2.861955165863037
1746522234389363000,11.210363037109374,-1.3075312376022339,3.3581769466400146,-3.037750005722046
1746522234399351000,11.22035107421875,-0.8430095911026001,2.7621665000915527,-2.9671132564544678
1746522234409339100,11.230339111328124,-0.5046443343162537,2.5056862831115723,-2.675962209701538
1746522234419326000,11.240325927734375,-0.2703295350074768,2.5941803455352783,-2.2234795093536377
1746522234429314000,11.25031396484375,-0.059924911707639694,2.6394476890563965,-1.6730132102966309
1746522234439302000,11.260302001953125,0.10674422979354858,2.5024924278259277,-1.1441243886947632
1746522234449289000,11.2702890625,0.21935494244098663,2.2939131259918213,-0.6941339373588562
1746522234459277000,11.280277099609375,0.329252690076828,2.1563198566436768,-0.3134062886238098
1746522234469265000,11.290264892578126,0.48722678422927856,2.074221611022949,-0.009843756444752216
1746522234479252200,11.300252197265625,0.6694597005844116,1.8836164474487305,0.20678095519542694
1746522234489240000,11.310239990234376,0.8487242460250854,1.552865743637085,0.36826372146606445
1746522234499228000,11.320227783203125,0.9746304750442505,1.1908800601959229,0.5492979288101196
1746522234509216000,11.330216064453126,1.0539569854736328,0.9059101939201355,0.8214622139930725
1746522234519203000,11.340203125,1.0901139974594116,0.7291210889816284,1.1641863584518433
1746522234529191000,11.35019091796875,1.0691882371902466,0.5365759134292603,1.5156517028808594
1746522234539179000,11.360178955078124,0.9982234835624695,0.24978546798229218,1.6526082754135132
1746522234549166000,11.370166015625,0.9469972252845764,0.21635037660598755,1.4805659055709839
1746522234559154000,11.38015380859375,0.8547176122665405,0.09039723873138428,1.2087846994400024
1746522234569142000,11.39014208984375,0.7240796089172363,0.0979694351553917,0.8072841167449951
1746522234579129000,11.400129150390624,0.5991307497024536,0.08624619990587234,0.3165122866630554
1746522234589117000,11.410116943359375,0.41406282782554626,-0.1299687922000885,-0.2281467169523239
1746522234599105000,11.42010498046875,0.22891026735305786,-0.5607646703720093,-0.8051655292510986
1746522234609093000,11.430093017578125,0.15623819828033447,-1.1219850778579712,-1.34269380569458
1746522234619080200,11.440080078125,0.20484620332717896,-1.6813900470733643,-1.741413950920105
1746522234629068000,11.450068115234375,0.360079824924469,-2.1487977504730225,-1.8003194332122803
1746522234639056000,11.460055908203126,0.5880901217460632,-2.5627942085266113,-1.410546064376831
1746522234649043200,11.470043212890625,0.7771761417388916,-2.8812825679779053,-0.6303942203521729
1746522234659031000,11.480031005859376,0.8848967552185059,-3.23954439163208,0.32641294598579407
1746522234669019000,11.490018798828125,0.815106987953186,-3.3457090854644775,1.2420574426651
1746522234679006200,11.500006103515625,0.16361817717552185,-2.897439479827881,2.090242385864258
1746522234688994000,11.509994140625,-0.9468140006065369,-2.0503721237182617,2.864640235900879
1746522234698982000,11.51998193359375,-1.5164462327957153,-1.6160041093826294,3.558945655822754
1746522234708969200,11.52996923828125,-0.6917074918746948,-1.7712576389312744,4.235098361968994
1746522234718957300,11.539957275390625,0.7396869659423828,-2.0821762084960938,4.88485860824585
1746522234728945000,11.54994482421875,1.8219257593154907,-2.2250399589538574,5.167011737823486
1746522234738933000,11.55993310546875,2.331064462661743,-2.240088701248169,4.84311056137085
1746522234748920300,11.56992041015625,2.4062418937683105,-2.4302470684051514,3.96679949760437
1746522234758908200,11.579908203125,2.2208616733551025,-2.874587297439575,2.811974287033081
1746522234768896000,11.58989599609375,1.9003684520721436,-3.512006998062134,1.728271484375
1746522234778883000,11.599883056640625,1.5316050052642822,-4.148835182189941,0.950225830078125
1746522234788871200,11.60987109375,1.159932017326355,-4.55226469039917,0.5320374369621277
1746522234798859000,11.61985888671875,0.7926279306411743,-4.629584789276123,0.4537750780582428
1746522234808846000,11.62984619140625,0.43711400032043457,-4.5265069007873535,0.6705623269081116
1746522234818834200,11.639834228515625,0.15692870318889618,-4.324955463409424,1.0820404291152954
1746522234828822000,11.649822021484376,0.03896310180425644,-4.011274337768555,1.5711218118667603
1746522234838809900,11.659809814453125,0.09456031024456024,-3.499569892883301,1.9793281555175781
1746522234848797200,11.669797119140625,0.21460433304309845,-2.859640598297119,2.156325340270996
1746522234858785300,11.679785400390625,0.21666322648525238,-2.2707722187042236,2.0705971717834473
1746522234868772900,11.68977294921875,0.00875686015933752,-1.856236219406128,1.7889641523361206
1746522234878760200,11.69976025390625,-0.41998836398124695,-1.5368027687072754,1.321036458015442
1746522234888748800,11.709748779296875,-0.9685004353523254,-1.2227668762207031,0.6734786033630371
1746522234898737000,11.71973681640625,-1.4944493770599365,-0.9567461609840393,-0.06048699840903282
1746522234908724000,11.729723876953125,-1.8105826377868652,-0.5178649425506592,-0.7362532019615173
1746522234918711800,11.7397119140625,-1.8621773719787598,0.10073171555995941,-1.2692279815673828
1746522234928700000,11.749699951171875,-1.7620261907577515,0.6945876479148865,-1.756800889968872
1746522234938687000,11.75968701171875,-1.5508068799972534,1.1266043186187744,-2.277000904083252
1746522234948674800,11.7696748046875,-1.2733646631240845,1.3899321556091309,-2.8103275299072266
1746522234958663000,11.779662841796876,-0.9882370233535767,1.4916167259216309,-3.296504259109497
1746522234968651000,11.789651123046875,-0.7153847813606262,1.5580339431762695,-3.6320269107818604
1746522234978637800,11.799637939453126,-0.5110350847244263,1.6616016626358032,-3.722748041152954
1746522234988626000,11.8096259765625,-0.4673261046409607,1.7863320112228394,-3.485504627227783
1746522234998614000,11.819614013671876,-0.6158074736595154,2.0741171836853027,-2.9692304134368896
1746522235008600800,11.829600830078125,-0.9691889882087708,2.6701061725616455,-2.2541146278381348
1746522235018589000,11.8395888671875,-1.4353090524673462,3.5903193950653076,-1.5154727697372437
1746522235028577000,11.849576904296875,-1.8469394445419312,4.678718566894531,-0.8829355239868164
1746522235038563800,11.859563720703125,-2.0911388397216797,5.483668327331543,-0.34753119945526123
1746522235048552000,11.869552001953124,-2.2360000610351562,5.625726222991943,0.016023069620132446
1746522235058540000,11.8795400390625,-2.2983319759368896,5.151205062866211,-0.04964409023523331
1746522235068527900,11.88952783203125,-2.229396104812622,4.265830039978027,-0.5922542810440063
1746522235078515000,11.899514892578125,-1.9601926803588867,3.1624748706817627,-1.4053962230682373
1746522235088502800,11.909502685546874,-1.4752607345581055,2.1362740993499756,-2.266401529312134
1746522235098491000,11.919490966796875,-0.9150928258895874,1.4205310344696045,-3.0356500148773193
1746522235108478000,11.92947802734375,-0.43082916736602783,0.9526472091674805,-3.6036694049835205
1746522235118465800,11.9394658203125,-0.09477338939905167,0.6795312762260437,-3.95046329498291
1746522235128454000,11.949453857421876,0.10064008831977844,0.5845805406570435,-4.0470075607299805
1746522235138441000,11.95944091796875,0.1533363163471222,0.6497209072113037,-3.8716626167297363
1746522235148428800,11.9694287109375,0.08391175419092178,0.8116341233253479,-3.461045503616333
1746522235158417000,11.9794169921875,-0.038698311895132065,1.0211695432662964,-2.89424204826355
1746522235168404200,11.989404296875,-0.14583280682563782,1.2443597316741943,-2.2219974994659424
1746522235178391800,11.999391845703125,-0.21677514910697937,1.2589296102523804,-1.5221208333969116
1746522235188380000,12.0093798828125,-0.2167310267686844,1.0698655843734741,-0.8633517622947693
1746522235198368000,12.019367919921875,-0.12623868882656097,0.8216062784194946,-0.25360211730003357
1746522235208355000,12.02935498046875,0.019527170807123184,0.5196547508239746,0.281569242477417
1746522235218343000,12.039343017578124,0.15237043797969818,0.19176742434501648,0.6791794896125793
1746522235228331000,12.0493310546875,0.224054217338562,-0.06768598407506943,0.8618560433387756
1746522235238318000,12.059318115234374,0.24744129180908203,-0.2154110074043274,0.8158749938011169
1746522235248306000,12.069305908203125,0.21928280591964722,-0.3612292408943176,0.5669826865196228
1746522235258294000,12.0792939453125,0.14642058312892914,-0.5681403279304504,0.1870177984237671
1746522235268281000,12.089281005859375,0.05732310935854912,-0.8648679256439209,-0.19916951656341553
1746522235278269000,12.09926904296875,0.08819740265607834,-1.2907682657241821,-0.46036383509635925
1746522235288256800,12.1092568359375,0.261771559715271,-1.8535351753234863,-0.4786718785762787
1746522235298244900,12.119244873046876,0.49270862340927124,-2.5760388374328613,-0.22115857899188995
1746522235308232200,12.129232177734375,0.7658795714378357,-3.1940698623657227,0.24128738045692444
1746522235318219800,12.1392197265625,1.1357078552246094,-3.39841890335083,0.8915865421295166
1746522235328208000,12.149207763671875,1.451330542564392,-3.1536705493927,1.687188982963562
1746522235338195200,12.1591953125,1.2870028018951416,-2.355095386505127,2.403515338897705
1746522235348183000,12.16918310546875,0.4404948949813843,-1.2251641750335693,2.924037456512451
1746522235358171000,12.1791708984375,-0.46302512288093567,-0.779471218585968,3.4010589122772217
1746522235368158200,12.189158203125,-0.31813353300094604,-1.5353307723999023,3.8704495429992676
1746522235378146000,12.19914599609375,0.8718076348304749,-2.517960548400879,4.23342227935791
1746522235388134000,12.2091337890625,2.1325740814208984,-3.038132667541504,4.419613361358643
1746522235398122000,12.2191220703125,2.915095329284668,-3.1634726524353027,4.320231914520264
1746522235408109000,12.229109130859374,3.1511383056640625,-3.055649518966675,3.8449721336364746
1746522235418097000,12.239096923828125,3.008516550064087,-3.036067008972168,3.084993839263916
1746522235428085000,12.2490849609375,2.626970052719116,-3.120206117630005,2.280766725540161
1746522235438072000,12.259072021484375,2.090061664581299,-3.096968173980713,1.631225824356079
1746522235448060200,12.26906005859375,1.5359711647033691,-2.9254539012908936,1.230653166770935
1746522235458048000,12.279048095703125,1.1174625158309937,-2.6962156295776367,1.0712586641311646
1746522235468035800,12.289035888671876,0.8833227157592773,-2.4686226844787598,1.0739986896514893
1746522235478023200,12.299023193359375,0.8139579892158508,-2.2583553791046143,1.127347469329834
1746522235488011000,12.309010986328126,0.8694164156913757,-2.064842700958252,1.1255249977111816
1746522235497998800,12.318998779296875,0.9788262844085693,-1.9791548252105713,1.0055876970291138
1746522235507986200,12.328986083984375,1.047316074371338,-1.9741137027740479,0.7652353644371033
1746522235517974000,12.33897412109375,1.0035566091537476,-1.9829498529434204,0.4333575665950775
1746522235527961900,12.3489619140625,0.8202362656593323,-2.039771318435669,0.10421708226203918
1746522235537949200,12.35894921875,0.4998447000980377,-2.116783618927002,-0.14566652476787567
1746522235547937000,12.36893701171875,0.05564110353589058,-2.1018428802490234,-0.30565592646598816
1746522235557924900,12.3789248046875,-0.508655846118927,-1.858167052268982,-0.39129361510276794
1746522235567913000,12.388912841796875,-1.119225025177002,-1.2648173570632935,-0.40468066930770874
1746522235577900000,12.398900146484374,-1.7214012145996094,-0.35183948278427124,-0.3800368309020996
1746522235587888000,12.40888818359375,-2.221794605255127,0.7090896964073181,-0.31797486543655396
1746522235597876000,12.4188759765625,-2.5240085124969482,1.6405054330825806,-0.2419498711824417
1746522235607863000,12.428863037109375,-2.684337615966797,2.2955353260040283,-0.22647733986377716
1746522235617851100,12.43885107421875,-2.6454544067382812,2.532378673553467,-0.3574071228504181
1746522235627839000,12.4488388671875,-2.3872880935668945,2.4386355876922607,-0.7042715549468994
1746522235637826000,12.458825927734376,-2.0631937980651855,2.1599957942962646,-1.2605751752853394
1746522235647814100,12.468814208984375,-1.736759066581726,1.8553828001022339,-1.9157527685165405
1746522235657802000,12.478802001953126,-1.4718900918960571,1.7563717365264893,-2.5207839012145996
1746522235667789800,12.488789794921875,-1.4335886240005493,2.091517925262451,-2.9950406551361084
1746522235677777200,12.498777099609375,-1.555108904838562,2.650630474090576,-3.307518482208252
1746522235687765000,12.508764892578125,-1.4900341033935547,3.23075795173645,-3.3397839069366455
1746522235697752800,12.5187529296875,-1.172626256942749,3.553865909576416,-3.0110342502593994
1746522235707740200,12.528740234375,-0.755312979221344,3.6873385906219482,-2.399547815322876
1746522235717728000,12.53872802734375,-0.49944978952407837,3.773566961288452,-1.6268240213394165
1746522235727716000,12.548716064453124,-0.47262662649154663,3.9108550548553467,-0.8502317070960999
