time,seconds_elapsed,z,y,x
1746522007785535700,0.02653564453125,-3.446211882254481,-1.7556351688101888,0.3574897883400321
1746522007795523800,0.03652392578125,-3.552746257346868,-1.542576355497539,0.3154500972509384
1746522007805512700,0.0465126953125,-3.3208266762197014,-1.5997046023860573,0.1716090509407222
1746522007815501600,0.05650146484375,-3.422852633976936,-1.9404276725813745,0.004340805683284998
1746522007825490700,0.06649072265625,-3.2735476231724023,-1.8927727719590066,0.347839478071779
1746522007835478800,0.076478759765625,-3.0192069514006374,-1.574055489605665,0.8435767304986714
1746522007845468000,0.086468017578125,-3.1105525251895187,-1.5912813496947287,0.8679957169622182
1746522007855456800,0.096456787109375,-3.374313936257362,-1.1376993775606155,1.4286159220576284
1746522007865446000,0.10644580078125,-3.2402801443427798,-1.3425816064193845,1.0342401721298693
1746522007875433700,0.116433837890625,-2.1020734017819165,-0.11375643530040978,1.9405974761903284
1746522007885422600,0.126422607421875,-1.9007547106236218,1.4999682168707251,2.951099629858136
1746522007895411700,0.13641162109375,-0.5683300488203764,0.7120926230669021,2.035636643800139
1746522007905400800,0.14640087890625,0.3545575342804193,0.22963176245093345,1.2378504813566804
1746522007915389000,0.156388916015625,1.1165560517668724,-0.455990202319622,0.586167611066997
1746522007925377800,0.166377685546875,1.8342168303549289,-0.8011997702792286,0.41498365367054935
1746522007935367000,0.176366943359375,2.3398668433785437,0.008012918324768543,1.0046396913751958
1746522007945355800,0.186355712890625,2.588731129565835,0.09640461074411869,1.0488447438046336
1746522007955343600,0.196343505859375,2.9504332749038933,0.2646057529374957,0.9918579512134194
1746522007965332700,0.206332763671875,2.6921517565518616,0.2497039518818259,0.6830027221828698
1746522007975321900,0.21632177734375,2.2812872286379338,-0.011787468427419661,0.13706950634866952
1746522007985310700,0.226310791015625,1.4734621950000524,-1.214138620249182,-1.5028127926468848
1746522007995298800,0.236298828125,1.3024433650374412,-1.6902769998453557,-1.9456404387935995
1746522008005288000,0.246287841796875,1.9680875406622886,-1.2755959823831915,-1.0612114734247327
1746522008015276500,0.256276611328125,2.4863264016240834,-1.2115344291001557,-0.4526470293715596
1746522008025264600,0.2662646484375,2.7891303677916524,-1.2377882297754288,0.23123539825528858
1746522008035253800,0.276253662109375,2.762826882755756,-1.458768191476166,0.550178598318994
1746522008045243000,0.286242919921875,2.7592233053058384,-0.8445449910089373,1.0094155274748802
1746522008055231700,0.296231689453125,2.9006372705996033,0.3385075861029327,1.7894301786452531
1746522008065219800,0.3062197265625,2.2726859890311957,0.4010204486392438,1.330137427648902
1746522008075208700,0.316208740234375,1.4783020362466572,0.08609306008815765,0.5459107117414475
1746522008085197600,0.326197509765625,1.1376941168636083,-0.24514446194656192,0.187514183820039
1746522008095186700,0.336186767578125,1.0448965907007455,-0.4980543702628463,0.2569339031353593
1746522008105174800,0.3461748046875,0.8633850082963704,-0.8215947619237005,0.6127230250373482
1746522008115164000,0.356163818359375,1.09888010982275,-1.2249734641268848,1.0512046048037706
1746522008125152800,0.36615283203125,1.3698445841372013,-1.2492583028167485,1.7210061923690139
1746522008135142000,0.376141845703125,1.966969350287318,-1.252950143072009,2.002520994531363
1746522008145129700,0.386129638671875,1.928033762693405,-1.6723112811744212,1.539995106832683
1746522008155118600,0.39611865234375,1.4367372691929339,-1.5684266899384558,1.1053905146300793
1746522008165107700,0.406107666015625,0.651821401977539,-1.5194588070213795,0.8842936485514045
1746522008175096800,0.416096923828125,0.1715934149801731,-1.5756418820142746,0.37298319861330087
1746522008185085000,0.4260849609375,0.15918284621834755,-1.2989669210985302,0.2424560996454209
1746522008195073800,0.43607373046875,-0.0781435623884201,-1.1297160506565123,0.4151670474134385
1746522008205063000,0.44606298828125,-0.5776999347120523,-1.1137672978311777,0.23650223274230955
1746522008215051800,0.4560517578125,-0.5988865151256323,-1.2366158249951897,0.006591726415231824
1746522008225039600,0.46603955078125,-0.3646504737496376,-1.5179187379725276,-0.009945566887781023
1746522008235028700,0.47602880859375,-0.6568167260468005,-1.6892435651443898,0.20336269114129243
1746522008245017900,0.486017822265625,-1.0340075324177742,-1.4360894728086888,0.48469055589679627
1746522008255006000,0.496005859375,-1.022594157999754,-1.326595517258346,0.521437766600959
1746522008264994800,0.505994873046875,-0.7680167548626661,-1.4485807055912912,0.32002756123431025
1746522008274984000,0.51598388671875,-0.7386965523540974,-1.4964676614038646,-0.03288995075412095
1746522008284972500,0.52597265625,-0.9853373172730207,-1.574488328064978,-0.5472886855637654
1746522008294960600,0.535960693359375,-1.4360866963297128,-1.603399365250766,-1.1707345089390873
1746522008304949800,0.54594970703125,-2.0115490812480448,-1.2126492584742605,-1.4117784767642616
1746522008314939000,0.55593896484375,-2.9878204640120267,-0.8284552953429519,-1.5574905776433645
1746522008324927700,0.565927734375,-4.241594782948494,-0.771605134743452,-1.9137329962708054
1746522008334915800,0.575915771484375,-5.238760485181212,-0.8229599127970635,-2.1277767289675773
1746522008344904700,0.58590478515625,-5.53733251286745,-0.5619971925370395,-1.911883861272782
1746522008354893600,0.5958935546875,-5.272160650479793,-0.09260098067745566,-1.3889606418870388
1746522008364882700,0.605882568359375,-4.676960130390524,0.14928776740878819,-0.9945715940862894
1746522008374870800,0.615870849609375,-4.015761828258634,0.17641791252717376,-0.7109364387691021
1746522008384860000,0.62585986328125,-3.3523452655553814,0.004689619120955467,-0.4720272910155356
1746522008394848800,0.635848876953125,-2.3198557364851236,-0.6507701393589377,-0.5682386076772585
1746522008404838000,0.645837890625,-0.9172855253100395,-1.3388906429469585,-0.6936549029700457
1746522008414825700,0.65582568359375,-0.17256430583894253,-0.6479959984704852,0.40489758233353496
1746522008424814600,0.665814697265625,0.06338029302060603,-0.4964192433416843,0.6975160353776068
1746522008434803700,0.6758037109375,-0.5270259785294532,-1.3901421067565678,-0.09673870153669267
1746522008444792800,0.685792724609375,-1.3900743022173643,-1.8584116526737808,-0.8434174482837319
1746522008454781000,0.695781005859375,-2.2539187447190283,-2.1043094902709125,-1.5058276104234158
1746522008464769800,0.705769775390625,-3.273697260776162,-2.5138871932446953,-2.2184365124493834
1746522008474759000,0.715759033203125,-3.5444694273889064,-1.9485814606815575,-1.5838284033402799
1746522008484747800,0.725747802734375,-3.3845758025526997,-0.6879758344203233,-0.4852524640958756
1746522008494735600,0.735735595703125,-3.2573212955147026,-0.4159098286047578,-0.2253405315304175
1746522008504724700,0.745724853515625,-2.828003996065259,-0.4207636983767152,-0.3262809225406498
1746522008514713900,0.7557138671875,-2.031025350612402,0.3782593123853206,0.2259570925261825
1746522008524702000,0.765701904296875,-1.1062591141581535,0.5849538513630628,0.2732085269141942
1746522008534690800,0.77569091796875,-0.33556407999694343,-0.09464870698750019,-0.5608567172650247
1746522008544680000,0.785679931640625,0.36146132231950756,-0.29578035114109513,-1.1492273182690143
1746522008554668500,0.79566845703125,1.4645523278355597,-0.3098880792096257,-1.16626050533019
1746522008564656600,0.80565673828125,2.728281639075279,-0.15736469088047741,-0.9675082305938005
1746522008574645800,0.815645751953125,3.7078748597383497,0.3936354529544711,-0.2071802036028355
1746522008584635000,0.825634765625,4.3725668492048975,0.913978008197248,0.428365332486853
1746522008594623700,0.835623779296875,4.566745605480671,1.1964210311204195,0.9273815335191786
1746522008604611800,0.84561181640625,4.501690657246113,1.523691037763655,0.4135932952906936
1746522008614600700,0.8556005859375,4.2040035957008595,1.8009379533484577,0.9820601952984929
1746522008624589600,0.865589599609375,3.815882814514637,2.1428525714159012,1.505247910839319
1746522008634578700,0.87557861328125,3.5786224568814036,2.2194103259176012,1.5353125019744038
1746522008644566800,0.88556689453125,3.2374609952688216,2.223620344828069,2.1984566774770617
1746522008654556000,0.895555908203125,3.1530916902333495,2.7215608063876626,3.9728590905994174
1746522008664544800,0.905544677734375,3.0637580407887697,2.9086916899785398,4.1499467190817
1746522008674532900,0.915532958984375,2.294880869704485,2.894291700965166,3.531562307281792
1746522008684522000,0.92552197265625,1.2790484609246253,2.710135157009959,2.9199200632184743
1746522008694510800,0.9355107421875,0.39122166981101036,3.1602976760894057,3.2096593806296587
1746522008704500000,0.9455,-0.3353618354231119,4.133802224488556,3.136113667425513
1746522008714487800,0.95548779296875,-0.29989304715692994,4.2472108692646025,2.55155144572854
1746522008724477000,0.965476806640625,1.009542368724942,3.6229692558690902,2.10299928445518
1746522008734465800,0.9754658203125,2.3737673594146966,2.059067203748226,0.6023781566336751
1746522008744455000,0.985454833984375,3.613578034928441,1.249106619386375,1.0032567856494337
1746522008754443000,0.995443115234375,4.047001016131043,0.2732841494336724,1.7780080363988875
1746522008764432000,1.005431884765625,2.7195588189154862,-0.783408677522838,1.9927204621374606
1746522008774421000,1.0154208984375,0.1850175446987152,-1.4164546518817542,2.075707372903824
1746522008784410000,1.02541015625,-2.335655363163352,-1.5464078964844346,2.471351535332203
1746522008794398000,1.03539794921875,-4.143737635308504,-1.1377958236724137,3.155055391521752
1746522008804386800,1.04538671875,-4.807807108962535,-1.175187104433775,3.222195037075877
1746522008814376000,1.0553759765625,-4.355429836443066,-1.8099235160976648,2.3236732489466667
1746522008824364800,1.06536474609375,-3.615467209675908,-2.3354621786788106,1.3122504733026026
1746522008834353000,1.075352783203125,-3.290454334309697,-2.5922218942910433,0.5184503848206251
1746522008844342000,1.085342041015625,-3.6324867335379123,-2.681025966903567,-0.07894669546484946
1746522008854331000,1.095330810546875,-4.467935687160492,-2.766068641155958,-0.5965579260475933
1746522008864319700,1.10531982421875,-5.25700399788022,-2.8686858428046107,-0.8914226236484944
1746522008874307800,1.115307861328125,-5.820467317447066,-2.781361779616773,-0.7683240672461688
1746522008884297000,1.125296875,-6.08939356393218,-2.574612587842345,-0.48271308181136846
1746522008894285800,1.135285888671875,-6.014823183855414,-2.4234216171607375,-0.35567411722019315
1746522008904275000,1.14527490234375,-5.372740501081943,-2.283757125882804,-0.5781871337071061
1746522008914263000,1.155262939453125,-4.182383884567022,-1.996943925051391,-0.9117606244087219
1746522008924252000,1.165251953125,-2.6825287726819513,-1.6046253999143838,-1.1183829749330878
1746522008934240800,1.17524072265625,-1.0850246029496193,-1.3082237020045517,-1.1336547783449291
1746522008944230000,1.18522998046875,0.7762374707192182,-1.2938561539560556,-0.9169470871359109
1746522008954218000,1.195218017578125,3.0921658046275375,-1.4847694786950945,-0.6017745647173375
1746522008964206800,1.205206787109375,5.386089811998605,-1.5538266483083367,-0.4791187471138313
1746522008974196000,1.215196044921875,7.268072602134943,-1.4292282087370753,-0.5517639312816783
1746522008984185000,1.22518505859375,8.317007654571533,-1.171274022643268,-0.3888551233427599
1746522008994173000,1.2351728515625,8.473688162580132,-0.7466527720555662,0.11430488122971728
1746522009004161800,1.245161865234375,7.8976710663884875,-0.5363084783986211,-1.7265096120908856
1746522009014151000,1.25515087890625,6.75740096155703,-0.25168226621747014,-2.317499528747797
1746522009024139000,1.265138916015625,5.423032179948687,0.4035904452577233,-1.9447654095247386
1746522009034128000,1.2751279296875,4.1396687784343955,1.0227426265597344,-1.6270089350275694
1746522009044117000,1.285116943359375,2.995874591130018,1.251857087138295,-1.604809524309635
1746522009054106000,1.295106201171875,2.0678467225313186,0.9184422941297292,-2.3867136424884197
1746522009064094000,1.305093994140625,2.211265013384819,1.4286328731924294,-1.473187908103317
1746522009074082800,1.315082763671875,3.0393513292849064,1.4089552360370754,-1.9049748125366865
1746522009084072000,1.325072021484375,4.284432638677955,0.7831359980612993,-3.0367440693959593
1746522009094060800,1.335060791015625,5.639802707260847,0.7180585457339882,-3.7640722555175423
1746522009104049000,1.345048828125,6.7716843384534116,0.994967607666552,-4.559663538265228
1746522009114038000,1.3550380859375,7.20589700872898,1.645595708206296,-5.15286090183854
1746522009124027100,1.365027099609375,7.069158634030819,1.1035627146810292,-6.773997876092791
1746522009134015700,1.375015625,5.430811581778526,0.22890929339528082,-8.88459185346067
1746522009144003800,1.38500390625,2.0320418341785667,0.1075625490963459,-9.594643326088786
1746522009153993000,1.394992919921875,-2.678292158025503,1.2802975842028856,-8.202938207799196
1746522009163981800,1.40498193359375,-7.540157604911923,1.768728751400113,-7.092939907112717
1746522009173971000,1.414970947265625,-11.029246505862474,1.3003212583169341,-5.6947015876621006
1746522009183959000,1.424958984375,-12.277795783627033,1.5320459013938903,-3.1620211388811468
1746522009193948000,1.434947998046875,-11.863625784426928,1.7125252181410788,-1.2941951766520738
1746522009203936800,1.444936767578125,-9.939909300410747,0.8553320502221584,-0.925460283133015
1746522009213926000,1.45492578125,-7.734943094909191,-0.28963936416804786,-0.8505521955344826
1746522009223914000,1.4649140625,-6.802393364971875,-1.3128059152282774,-0.6009962738212198
1746522009233902800,1.47490283203125,-7.023534362453222,-2.2315587366119027,-0.42365635107830163
1746522009243892000,1.48489208984375,-7.768772299274802,-2.5193033730745316,-0.004591273313015699
1746522009253881000,1.494881103515625,-8.216318498376012,-2.2127399082429706,0.7780006809994577
1746522009263869000,1.504868896484375,-8.142882090765237,-1.871012337180227,1.4039486599214375
1746522009273857800,1.51485791015625,-7.388572374215721,-1.8154457866504787,1.8278565015427768
1746522009283847000,1.524846923828125,-6.158308110204339,-1.6088339575201271,2.2919956696569916
1746522009293835800,1.534835693359375,-4.68911058691144,-1.3796315263971686,2.9218910710304975
1746522009303824000,1.544823974609375,-2.6001883431255814,-1.294150168466568,3.7888822871252894
1746522009313813000,1.55481298828125,-0.13785890316069124,-1.3720586069248615,4.679182482615113
1746522009323802000,1.564802001953125,2.5647797606140372,-1.5662300566770135,5.330024810427427
1746522009333790700,1.574790771484375,4.957795425856113,-1.5295776115842163,6.1161377784729
1746522009343778800,1.58477880859375,6.285864815059304,-1.2564087590932846,6.504445022141933
1746522009353768000,1.594767822265625,6.060787062650919,-0.5741834510236978,6.477783809709549
1746522009363756800,1.6047568359375,5.058370015761256,1.0082140427306294,6.838419202598929
1746522009373746000,1.614745849609375,3.6683372145980595,1.8853113500371574,5.6934039490669965
1746522009383734000,1.624734130859375,1.9968033475369213,2.09524092541337,3.853227333524823
1746522009393723100,1.63472314453125,0.5840349829524755,2.7392121984124183,2.677948751415312
1746522009403711700,1.644711669921875,0.07916822926104068,3.5802678860008714,2.8994533215120435
1746522009413700900,1.654700927734375,0.8810498443245888,4.328584499615431,3.59231838927865
1746522009423689000,1.66468896484375,2.303276942127943,4.876252576418221,3.7059319089770315
1746522009433677800,1.674677734375,4.315805682063102,5.094866978031397,3.4491169560462236
1746522009443667000,1.6846669921875,6.417077119812369,5.15415035712719,3.0841034942030903
1746522009453656000,1.694656005859375,7.892855775061249,4.948524908685684,2.5684850448727605
1746522009463644000,1.704643798828125,8.385690730175375,4.562371920441091,2.4332500604748724
1746522009473632800,1.7146328125,8.096164763253928,4.020257386112213,2.65129250741899
1746522009483622000,1.724621826171875,7.7292568659663194,3.3063431005761026,2.943917317138612
1746522009493610800,1.73461083984375,7.377519649803638,2.2677789277672766,2.970947362883389
1746522009503598800,1.744598876953125,6.737923523148894,1.0508896936357022,2.3957950668275356
1746522009513588000,1.754587890625,4.754126372179389,0.3943751654058695,1.4085552769340575
1746522009523577000,1.7645771484375,1.5318395651668308,0.4793684475585818,0.2832769895292818
1746522009533565000,1.77456494140625,-2.584027481919527,0.8458657182186842,-1.043627666743472
1746522009543553800,1.7845537109375,-6.754027685731649,1.4035393484681844,-1.741275804068148
1746522009553543000,1.79454296875,-10.101994882333278,1.6763450667351483,-1.4528560448229313
1746522009563531800,1.80453173828125,-12.108988199973105,1.2864201587364077,-0.5937372060710564
1746522009573520000,1.814519775390625,-12.789646404856443,0.472736169937253,0.31981285903770473
1746522009583509000,1.824509033203125,-12.309099268907309,-0.9490504906222224,1.1511834207728504
1746522009593498000,1.834498046875,-10.848901629149912,-2.628802150930464,1.7187359093494712
1746522009603486700,1.84448681640625,-8.628481833928824,-3.9872473891749975,1.9139803951606154
1746522009613474800,1.854474853515625,-6.340224181756377,-4.808848142448068,1.8818520033635198
1746522009623464000,1.8644638671875,-4.3085950200319285,-4.92665502218306,2.082107595334947
1746522009633452800,1.874452880859375,-2.888255927932262,-5.319460746315121,1.6638272382065653
1746522009643442000,1.88444189453125,-1.5833090556412934,-4.803318857632577,1.6233559654779732
1746522009653430000,1.894429931640625,-0.1787087999433279,-3.9236101987838743,1.6315683518975972
1746522009663419100,1.904419189453125,0.9419394895732403,-3.232411310663819,1.4056263838753102
1746522009673407700,1.91440771484375,1.739086477330327,-2.504193482226133,1.2054319475065916
1746522009683396900,1.92439697265625,1.9301526545435188,-1.960473850788176,1.1949823766194283
1746522009693385000,1.934385009765625,1.6964730780065058,-1.4932237110465765,0.847511877990514
1746522009703373600,1.94437353515625,1.6329957543522118,-1.0142607755489648,0.045708451862866054
1746522009713362700,1.95436279296875,1.5290823754131793,-0.7799683278106152,-1.1868795880541205
1746522009723351800,1.964351806640625,1.5392840359538793,-0.9521515253774822,-2.658582664427161
1746522009733340000,1.97433984375,2.0113392378896475,-0.7922711984142661,-3.5792189614698287
1746522009743328800,1.984328857421875,2.7201719823777673,-0.37053967791870235,-4.136234712332487
1746522009753318000,1.99431787109375,3.2018881621062754,-0.04463876767158508,-4.42159362270236
1746522009763306800,2.004306640625,3.551517592334747,0.37975145063921806,-4.674169038367271
1746522009773294600,2.014294677734375,4.058898374673724,0.9325698959425092,-4.783240530721843
1746522009783283700,2.02428369140625,4.850035308361053,1.5719786833316087,-4.647295059967041
1746522009793272800,2.03427294921875,5.989854746815562,2.126813290762901,-4.608301896966993
1746522009803261700,2.04426171875,7.09465021816194,2.53512111993134,-3.978195775452256
1746522009813249800,2.054249755859375,7.649906265875697,2.533719436439872,-4.298480160991847
1746522009823239000,2.064239013671875,8.114577787300943,2.3936744214117525,-4.8297161584317685
1746522009833227800,2.074227783203125,8.283004847204685,2.2044228924050926,-4.6041187660634515
1746522009843215600,2.084215576171875,6.822310948362946,1.5711454473778605,-5.64768615398705
1746522009853204700,2.094204833984375,4.350023008963466,0.5927656941577791,-7.828920186245441
1746522009863193900,2.10419384765625,1.3277011404126882,-0.5065659588247537,-9.552016482761502
1746522009873182700,2.1141826171875,-1.5424883849531412,-0.9830112124130129,-9.453135252770782
1746522009883170800,2.1241708984375,-3.2775825777769088,-1.1814043715134261,-8.778213545712829
1746522009893160000,2.134159912109375,-4.161586595731974,-1.383006555788219,-7.763489390435814
1746522009903148500,2.1441484375,-4.967299751782417,-1.5270675284594297,-6.129203596273064
1746522009913137700,2.1541376953125,-6.349822615706921,-1.3263351127564906,-4.198914455868303
1746522009923125800,2.164125732421875,-8.335344106251,-0.7728107111409306,-2.665927474232018
1746522009933115000,2.174114990234375,-10.561015246129035,-0.26882074028402564,-1.5087065268605946
1746522009943103700,2.184103759765625,-12.075277653551101,-0.21796265970617532,-0.5229500343274325
1746522009953092900,2.1940927734375,-12.193697112226486,-0.4244695671573281,0.06603051526844501
1746522009963081000,2.2040810546875,-10.936968035137653,-0.6599395342424511,-0.286893170732446
1746522009973069600,2.214069580078125,-9.020136049938202,-0.7555220149487256,-0.974045085016638
1746522009983058700,2.22405859375,-7.188619710713625,-0.772274704568088,-1.4548502873800695
1746522009993047800,2.2340478515625,-5.882851000645756,-0.6191010356366634,-1.5289213396325707
1746522010003036000,2.244035888671875,-5.1913867395877835,-0.3414934700459242,-1.1043714007154106
1746522010013024800,2.254024658203125,-4.70229506265521,-0.00753507167994976,-0.3427649147538468
1746522010023014000,2.264013916015625,-4.1112867335587735,0.41811990586966274,0.5683380859963596
1746522010033001700,2.274001708984375,-3.2931209231704472,0.9321832347124814,1.4998480976223945
1746522010042990600,2.283990478515625,-2.172168682271242,1.2935571710094809,2.1526874444708226
1746522010052979700,2.293979736328125,-0.9810369897305965,1.6346546274751423,2.707481427630782
1746522010062968800,2.30396875,0.12310673970878123,1.9097151389315723,3.3070711225897074
1746522010072957000,2.31395703125,1.0896791507571935,1.9718921936422584,3.5624911140307782
1746522010082945800,2.32394580078125,2.008119691321254,1.978758280019462,3.479250813025236
1746522010092935000,2.333934814453125,2.8325527454108,1.9781492082104086,3.5886829553857442
1746522010102923800,2.343923828125,3.8346412909984586,1.9258809685736893,3.682353172729909
1746522010112911600,2.35391162109375,4.96313620236218,2.046368465694785,3.8335847676828503
1746522010122900700,2.363900634765625,5.927171203887462,2.3810893728658558,4.4278117665648455
1746522010132889900,2.373889892578125,6.621400838005543,2.754435194246471,5.113094708639383
1746522010142878700,2.383878662109375,7.045275069618224,3.033986002859473,5.401199702847004
1746522010152866800,2.39386669921875,7.102590948033332,3.119366238503158,5.602759217023849
1746522010162856000,2.40385595703125,6.829727946621179,3.129293173755705,6.069085519918799
1746522010172844800,2.4138447265625,6.405728042802214,3.2508240424498913,6.714149264329672
1746522010182832600,2.42383251953125,6.1866194279313085,3.4065514875173566,6.906624723818898
1746522010192821800,2.43382177734375,6.193352535578608,3.483779104104638,6.383026966172457
1746522010202811000,2.443810791015625,6.20388620455265,3.589391688176989,5.315189060345292
1746522010212799700,2.4537998046875,5.981003916361928,3.7607843198880553,4.354507460901141
1746522010222787800,2.463787841796875,5.248915968492627,3.8683351785466074,3.7381156842231746
1746522010232777000,2.47377685546875,4.347164112401009,4.12228772778362,3.4603199025839566
1746522010242765600,2.483765625,3.9248967314630745,4.511313641116023,3.1164605801895258
1746522010252754700,2.493754638671875,4.272535280135274,3.7607892883241174,2.2908362704887986
1746522010262742800,2.50374267578125,5.182282811155915,2.5192186174005267,2.2243119803540408
1746522010272732000,2.51373193359375,5.157212667307257,1.3536650182306766,2.8981343478679653
1746522010282720800,2.523720703125,3.323457609245181,-0.192651400578022,3.149418554678559
1746522010292710000,2.5337099609375,0.19788696314394472,-0.8937661180347204,3.6675253136932846
1746522010302697700,2.54369775390625,-3.6172049932539463,-0.44911943976730107,4.947161219117045
1746522010312686600,2.5536865234375,-7.253812606114149,0.1644718925371766,5.915736786681413
1746522010322675700,2.56367578125,-10.132792171657085,0.2595084297984838,5.657496184861659
1746522010332664800,2.573664794921875,-11.993545126760004,-0.1388651575937867,4.386777160865068
1746522010342652700,2.583652587890625,-12.38212826476097,-0.6993664124846458,2.888467524856329
1746522010352641800,2.593641845703125,-11.457498806428909,-1.2524918779104948,1.4974050883844494
1746522010362631000,2.603630859375,-9.783357971739768,-1.8894126478761433,0.21727716166004538
1746522010372618800,2.61361865234375,-7.864158088365197,-2.5381045196563004,-0.8385926584757863
1746522010382607600,2.623607666015625,-5.875723340722918,-3.0448356059148907,-1.4136613679014145
1746522010392596700,2.6335966796875,-3.8504999543875456,-3.1131057168036698,-1.5949387031584976
1746522010402585900,2.6435859375,-2.0821289303839206,-2.975551934069395,-1.8046403149977326
1746522010412573700,2.65357373046875,-0.8803887500673532,-2.7939281234622,-2.206637207453698
1746522010422562800,2.663562744140625,-0.3682867844253778,-2.4499960280925035,-2.7661551503956314
1746522010432552000,2.673552001953125,-0.22109482025206087,-1.9023370113790035,-3.227481745307147
1746522010442540800,2.683540771484375,-0.3824591021627188,-1.8270353944182396,-3.9960798071891066
1746522010452528600,2.693528564453125,-0.8290566222369671,-1.5891140886582433,-4.332665339188278
1746522010462517800,2.703517822265625,-1.3022002039313316,-1.1989299452014266,-4.397713565421104
1746522010472507000,2.7135068359375,-1.5613368778079748,-1.1606101514182985,-4.60990377920568
1746522010482495700,2.723495849609375,-1.5604022273063658,-1.2433034860655665,-4.705987779693305
1746522010492483800,2.73348388671875,-1.2156547239005564,-1.2683813748292625,-4.5813493003726
1746522010502473000,2.743472900390625,-0.5536088650286197,-1.312100543437898,-4.54341675234139
1746522010512461600,2.753461669921875,0.4190302987128496,-1.2153149705521762,-4.559566215370595
1746522010522450700,2.76345068359375,1.3907400726497172,-0.8470826927930116,-4.6083121261000635
1746522010532438800,2.773438720703125,2.310078438836336,-0.47360813046619293,-4.507866131010651
1746522010542428000,2.783427978515625,3.3506782091259955,0.020440584351867436,-4.138981672953069
1746522010552416800,2.793416748046875,4.534167277958989,0.6231441735476255,-3.686225045727193
1746522010562406000,2.803406005859375,5.69229511104226,1.1816039857387541,-3.2041841640889643
1746522010572393700,2.813393798828125,6.8247390522927045,1.602974417836964,-2.4713521198540924
1746522010582382600,2.823382568359375,7.8031714124828575,1.849287558236718,-2.101492387023568
1746522010592371700,2.833371826171875,8.164130630499123,1.6823752868101,-2.39919990683496
1746522010602360800,2.84336083984375,7.541946241894364,1.1991370120808482,-3.0793682823747393
1746522010612348700,2.8533486328125,5.899986844363808,0.37896395352333784,-4.005266445468366
1746522010622337800,2.863337890625,3.785072665709257,-0.4151829756349325,-4.716724862284958
1746522010632327000,2.873326904296875,1.6806009706139564,-0.7637287022799253,-5.054959915056824
1746522010642315800,2.883315673828125,-0.08785305549800396,-1.0614762618407607,-5.17817069966197
1746522010652303600,2.8933037109375,-1.7013579274386166,-1.733816135711968,-5.315923804360628
1746522010662292700,2.903292724609375,-3.378247768574953,-2.5102447450891137,-5.030471955010294
1746522010672282000,2.9132822265625,-5.8346180078744885,-2.462960723605752,-4.010823495073616
1746522010682271000,2.92327099609375,-9.496494502025842,-1.523901757904887,-2.7486934357240793
1746522010692259000,2.933259033203125,-12.726216427475213,-0.3439136829301715,-1.5067448713988065
1746522010702248200,2.943248291015625,-14.380381811106204,0.5496563280105591,-0.6692676268190145
1746522010712237000,2.953237060546875,-14.425367784780263,0.7900108522668481,-0.648138037289679
1746522010722225200,2.96322509765625,-13.148038987255095,0.5048825357824563,-1.0819224722158163
1746522010732214300,2.97321435546875,-10.760213291871548,0.21501696164309977,-1.2553905219614505
1746522010742203000,2.983202880859375,-7.9419047603905195,0.09216711930483579,-0.9899036753404885
1746522010752192000,2.99319189453125,-5.488205201604962,0.1528834538131952,-0.715085229011625
1746522010762180000,3.00318017578125,-3.6576638448923826,0.3589993161201477,-0.17684300607144832
1746522010772169200,3.013169189453125,-2.191311189636588,0.38970834263861176,0.578553775062412
1746522010782158000,3.023157958984375,-0.787910957378149,0.37175095340460534,1.0540504957541823
1746522010792147200,3.033147216796875,0.46918636850118633,0.5568704971730709,1.3503954950407147
1746522010802135000,3.043135009765625,1.636947122326493,0.7549500602796674,1.5686930857896804
1746522010812124000,3.0531240234375,2.7632325409471985,0.7353478264480828,1.7410475482702255
1746522010822113000,3.063113037109375,3.792150641271472,0.6996151265487074,1.9402755507595837
1746522010832102100,3.07310205078125,4.552451707190275,0.696475367218256,2.108601634506881
1746522010842090200,3.08309033203125,5.066977685108781,0.7115954871997237,2.397101473250985
1746522010852079000,3.0930791015625,5.354512185952067,0.8118085503160953,2.7683409700021144
1746522010862068200,3.103068115234375,5.511396692100167,0.9664394323185086,3.2160619411483404
1746522010872057000,3.11305712890625,5.5720835082530975,1.1706927156239748,3.6851702759772538
1746522010882045000,3.123044921875,5.494560708111524,1.3536723247542977,4.065557540301978
1746522010892034000,3.133033935546875,5.192162984657287,1.4618381004408,4.324987351906299
1746522010902023200,3.143023193359375,4.679901444539428,1.6542530619144438,4.551582815401256
1746522010912012000,3.153011962890625,4.19232777095437,2.0286735267892477,4.705725037103891
1746522010922000100,3.163000244140625,3.9067835671454665,2.315733395858109,4.754260227692127
1746522010931989200,3.1729892578125,3.80036025121212,2.622280055685341,4.574026410138607
1746522010941978000,3.18297802734375,3.8013235432863235,3.1650714663624764,4.4181694934725755
1746522010951967000,3.192967041015625,3.8649849913358687,3.8274294599235055,4.102349978387355
1746522010961955000,3.202955078125,3.792390295246243,4.220634997028112,3.6107308288037774
1746522010971944200,3.212944091796875,3.417258174970746,4.159259906350076,3.1768653645306824
1746522010981933000,3.22293310546875,2.3452567197233436,4.060643464775383,3.685822894667089
1746522010991922200,3.232922119140625,0.6111112059265374,4.070429530252516,4.777451425926387
1746522011001910300,3.24291015625,-1.932843793323636,3.668994217202067,5.578258982017636
1746522011011899000,3.25289892578125,-5.912279339703917,2.9583567613795396,6.600327654838561
1746522011021888000,3.262887939453125,-9.921960971266031,1.830014702489972,6.76786331886053
1746522011031877000,3.272877197265625,-12.002644963538646,0.9621557636499405,5.738114028409123
1746522011041865200,3.282865234375,-11.121084247082472,1.036012442499399,4.691832413090765
1746522011051854000,3.29285400390625,-7.513723771494626,0.9275731105685233,3.8407588970959186
1746522011061843200,3.30284326171875,-2.5913316674530504,-0.6371235990613698,2.521639122545719
1746522011071832000,3.31283203125,1.3592775974154472,-2.617120188704133,1.106183710834384
1746522011081820000,3.32281982421875,2.621238145416975,-4.212872546333075,-0.2638403215229511
1746522011091809000,3.33280908203125,1.264149582478404,-5.151968336912989,-1.8985992861554026
1746522011101798100,3.342798095703125,-1.3149492108672856,-5.052585002619028,-3.428207439008355
1746522011111787000,3.352787109375,-3.8797932688891885,-4.408988992673159,-3.745623867896199
1746522011121775000,3.362775146484375,-5.8386073697716,-3.8635476520091294,-2.552484634925425
1746522011131764200,3.37276416015625,-6.7081684363543985,-3.4062516277879475,-1.324514327070117
1746522011141753000,3.382753173828125,-6.293529066076874,-2.758995341768861,-0.8343069439806043
1746522011151742200,3.3927421875,-4.947421331357956,-1.9666098693251608,-0.9450314642392098
1746522011161730000,3.40272998046875,-3.430611577540636,-1.2469985411912201,-1.5247681654758751
1746522011171719200,3.41271923828125,-1.851788727402687,-0.618669073960185,-2.1617589319378134
1746522011181708000,3.4227080078125,-0.28549627301394936,-0.05002455236315727,-2.6533678523883224
1746522011191697200,3.432697265625,1.020412137785554,0.43093876317143437,-2.794565544582903
1746522011201685200,3.442685302734375,2.0936901888400317,0.6893962226122617,-2.4772715730309485
1746522011211674000,3.452674072265625,3.0516940935075283,0.8498246849775314,-2.2516275650419293
1746522011221663000,3.4626630859375,3.9334477021872996,1.149675646558404,-2.3991231883369384
1746522011231652000,3.472652099609375,4.5543736151635645,1.4522738610208035,-2.840306428277492
1746522011241640200,3.48264013671875,4.976511816763877,1.6659920150250196,-3.3450609537661076
1746522011251629000,3.492629150390625,5.387870265674591,1.9844979927152393,-3.693030926349759
1746522011261618200,3.5026181640625,5.646525293514133,2.4301316361933947,-4.037297368240356
1746522011271606300,3.512606201171875,5.784723219370842,2.8489649510294197,-4.273775343324243
1746522011281595000,3.522594970703125,5.906103865939379,3.344761094036698,-4.120309997969866
1746522011291584000,3.532583984375,6.0316691047161815,3.8996652595728634,-3.6679192814469337
1746522011301573000,3.542572998046875,6.023221009844542,4.38112366514802,-3.299040668608248
1746522011311561200,3.552561279296875,5.839505779916048,4.61299940713346,-3.4242209997206925
1746522011321550000,3.562550048828125,5.605801068937778,4.534938262331486,-3.925373116803169
1746522011331539200,3.572539306640625,5.462679130682349,4.316978817495704,-4.43563734562397
1746522011341528000,3.582528076171875,5.523970342469215,3.895945362266898,-4.684164654941856
1746522011351516000,3.592515869140625,5.941947917258739,3.291785875174403,-4.979813196396828
1746522011361505000,3.602505126953125,6.438430873486399,2.294475796034932,-5.692864435362815
1746522011371494100,3.612494140625,6.708653005000948,0.5929127014130353,-6.813223386543989
1746522011381483000,3.62248291015625,6.299945362859964,-0.9079682463884353,-7.503678178298473
1746522011391471000,3.63247119140625,4.0450469594538205,-2.0750907023102045,-7.266766780233382
1746522011401460200,3.642460205078125,-1.0542477718919514,-3.356939607608318,-6.649261489355564
1746522011411449000,3.652448974609375,-8.188740755620598,-4.236624008798599,-5.612516640928387
1746522011421438200,3.662438232421875,-13.962113144415616,-3.915839272521436,-4.304505704891682
1746522011431426000,3.672426025390625,-17.294693386793135,-2.3017715060010553,-2.6660645446151494
1746522011441415200,3.682415283203125,-18.32717531707883,-0.8938035274356603,-1.6103005229413507
1746522011451404000,3.692404052734375,-17.356817542272804,-0.5860416465997695,-1.5772756206959484
1746522011461393200,3.70239306640625,-14.802899951934814,-1.0427207079663872,-2.0957842385098338
1746522011471381200,3.71238134765625,-11.744992390739917,-1.7318460046827793,-2.5576944785282016
1746522011481370000,3.7223701171875,-9.19576383500099,-2.35658416942358,-2.6914710808113216
1746522011491359000,3.73235888671875,-7.488522694742679,-2.9386159958600997,-2.323744414486736
1746522011501347000,3.74234716796875,-6.4345315279603,-3.268389217495918,-1.8048191786959766
1746522011511336200,3.752336181640625,-5.270332266008854,-2.8037089282423255,-0.6837207342591136
1746522011521325000,3.762324951171875,-3.8168192185819145,-1.7811223690271376,0.5773129446884617
1746522011531314200,3.772314208984375,-2.2747966975748537,-0.8918693445026874,1.5604617024086416
1746522011541302300,3.78230224609375,-0.5244166728138924,0.01609364118874073,2.5791496467500923
1746522011551291000,3.792290771484375,1.4040730169534683,0.9119026632279157,2.9853344924151894
1746522011561280000,3.802280029296875,3.014258389082551,1.7564789261579512,3.0200673676222562
1746522011571269000,3.81226904296875,4.303327893283963,2.531656074169278,3.471555582347512
1746522011581257200,3.82225732421875,5.279374819642305,3.1677339635699986,3.8769142063215374
1746522011591246000,3.83224609375,5.841601290890574,3.8087504784166812,3.9412244736686346
1746522011601235200,3.842235107421875,6.124560154381394,4.354138627588749,3.875691678789258
1746522011611224000,3.85222412109375,6.203679868325591,4.713122161617875,3.70996277192831
1746522011621212000,3.8622119140625,5.947628300982713,5.049041630923748,3.4145717123657464
1746522011631201000,3.872200927734375,5.609916103041171,5.369060351264476,3.092707948680222
1746522011641190100,3.882190185546875,5.26828702391684,5.660370863515138,2.9446921009033917
1746522011651178200,3.89217822265625,4.9813785460174085,5.830521093949676,3.2293709200546146
1746522011661167000,3.9021669921875,4.92807307228744,5.8382701006412505,3.5871550151661036
1746522011671156200,3.91215625,5.246384404188394,5.638612036171555,3.6321465417981145
1746522011681144800,3.922144775390625,6.136526486507058,5.335581275510788,3.55629635104388
1746522011691132700,3.932132568359375,7.013272496157884,4.98370728122592,3.5931720834985375
1746522011701121800,3.942121826171875,7.005404247000813,4.398361215674877,3.583370528191328
1746522011711111000,3.95211083984375,5.926289160355926,3.6936172018051145,3.4286016990229484
1746522011721099800,3.962099853515625,4.165648438343405,3.1613556607097384,3.3905446478292345
1746522011731087600,3.972087646484375,2.0629192030012606,2.7143045516490933,3.0651977182030676
1746522011741076700,3.98207666015625,0.13060147937834263,1.9821978990793228,2.400690583784133
1746522011751065900,3.99206591796875,-0.9649871876835823,0.67494567245543,2.0435534082740543
1746522011761054700,4.0020546875,-0.9035276335924863,-0.8010819891184567,2.706179405121505
1746522011771042800,4.012042724609375,-0.5966840366452932,-1.8886065921902655,3.9519507426053284
1746522011781032000,4.022031982421875,-1.3206184886753558,-2.500644849833846,4.837281040728092
1746522011791020800,4.032020751953125,-3.4692847148060797,-2.539082424777746,5.008667534959316
1746522011801008600,4.042008544921875,-6.319695188468694,-1.9478128143966196,4.396218066166341
1746522011810997800,4.051997802734375,-9.119148797354102,-1.5663357090085743,2.8808623105496167
1746522011820986600,4.061986572265625,-11.51283315563798,-1.8183286486104129,1.2425319171711802
1746522011830975700,4.071975830078125,-13.026760047495364,-2.527737731681764,0.3685892014380544
1746522011840963800,4.0819638671875,-13.353891230189799,-3.1646567480817436,0.25739545623250304
1746522011850953000,4.091952880859375,-12.498422401845454,-3.3557585811302064,0.44638058938793834
1746522011860941800,4.10194189453125,-10.918469086372852,-3.346300140172243,0.5843069682942703
1746522011870930700,4.1119306640625,-8.766088223633169,-3.159842625798285,0.5186914270348847
1746522011880918800,4.121918701171875,-6.237309166204929,-2.7512580255150794,0.12639639237131922
1746522011890907600,4.13190771484375,-3.372756769943237,-2.288477724663913,-0.5078291106283664
1746522011900896800,4.141896728515625,-0.7157990763694048,-1.753150073996186,-1.3249179394349455
1746522011910884900,4.151884765625,1.181395311424136,-1.3389239606946706,-2.3676146820038557
1746522011920874000,4.1618740234375,2.5173621758788824,-0.975392554102838,-3.2251091709569093
1746522011930862600,4.171862548828125,3.4126001200318337,-0.6178124571308493,-3.6685286455169317
1746522011940851700,4.181851806640625,3.93395039101243,-0.5046943197339773,-3.899640417392552
1746522011950839800,4.19183984375,4.248697892951965,-0.43956279913187024,-3.8739918891340492
1746522011960828700,4.20182861328125,4.454558903715014,-0.2913087586849928,-3.6542972910687324
1746522011970817800,4.21181787109375,4.394571760264038,-0.15123159495294095,-3.450300028350949
1746522011980807000,4.221806884765625,4.081108452916145,-0.176138657194376,-3.278760097123682
1746522011990794800,4.231794677734375,3.6506793928325174,0.09341653484404086,-2.754742652760446
1746522012000783600,4.24178369140625,3.0165888778567314,0.5503402186214924,-1.9949527512341736
1746522012010772700,4.251772705078125,2.620465407478809,1.029925231540203,-1.2935399276137352
1746522012020760800,4.2617607421875,2.717040698614716,1.7423925331383943,-0.706571375427395
1746522012030749700,4.271749755859375,3.7458079922914505,2.3227646096691488,-0.17308171730916946
1746522012040738800,4.28173876953125,6.008780981081724,2.750014455194771,0.23382526861801742
1746522012050728000,4.29172802734375,8.41470113608241,3.1471979560196397,0.332640593765676
1746522012060715800,4.3017158203125,9.805228442764282,3.4018972319707275,-0.3654767685059458
1746522012070704600,4.31170458984375,11.157840152549744,3.096378161625564,-2.068044437060505
1746522012080693800,4.32169384765625,12.48951662633419,2.488086104772985,-3.9069270672693848
1746522012090682600,4.3316826171875,11.918499530386924,1.492146729464829,-6.440956008049845
1746522012100670700,4.341670654296875,9.564971825924514,0.146949387589097,-9.055772011464834
1746522012110659800,4.351659912109375,6.280336407026648,-1.1508686557352543,-10.951543672978877
1746522012120649000,4.36164892578125,2.7610820849150417,-3.190101862722635,-12.407293101155757
1746522012130636800,4.37163671875,0.41262160071432585,-4.7474084621012205,-11.856878063732385
1746522012140625700,4.381625732421875,-1.7833844687402247,-4.595575686384737,-8.238283661946653
1746522012150614800,4.39161474609375,-6.295692381590604,-4.68969715462774,-4.366887342263758
1746522012160603600,4.401603759765625,-11.603755535578728,-4.503273834784329,-2.469353931774199
1746522012170591700,4.411591796875,-15.668813017404078,-2.3875024547785517,-1.6683008764892815
1746522012180580900,4.421580810546875,-17.677767990505693,1.228895313745737,-0.911351020694524
1746522012190570000,4.431570068359375,-17.73361321184635,3.5038170990049835,-0.8714689460307359
1746522012200557800,4.441557861328125,-15.640634386146068,3.7819779145643113,-0.853907862637937
1746522012210546700,4.451546630859375,-12.047220602846146,3.3460151857510207,-0.055019291910529136
1746522012220535800,4.461535888671875,-8.155294413092731,2.7696777715638277,1.0104064382083713
1746522012230524700,4.471524658203125,-4.986311326244473,1.4273670910403131,1.133542111750692
1746522012240512800,4.4815126953125,-2.8850679455459116,-0.6063888535797596,0.7017309496589005
1746522012250502000,4.491501953125,-1.213658581647277,-1.5460612750038503,0.8489531628400087
1746522012260490800,4.50149072265625,0.2563385675907135,-1.3319894852563738,1.3758349105931817
1746522012270478800,4.511478759765625,1.4412299044370651,-0.9296788506761193,1.9702444264352321
1746522012280467700,4.5214677734375,2.268433007761836,-0.6222220902666449,2.4074051328614354
1746522012290456800,4.531456787109375,3.013624182832241,-0.2958753359481692,2.5242729781806466
1746522012300445700,4.54144580078125,3.8156115963578223,-0.07424363234043121,3.010621493884921
1746522012310433800,4.551433837890625,4.744387652975321,0.005044423907995223,4.596882677330076
1746522012320423000,4.5614228515625,5.8222021784156555,0.06186696584820747,5.954267885127663
1746522012330411800,4.571411865234375,6.712284054979682,0.2686947758167982,6.200519942989945
1746522012340400600,4.581400634765625,7.20901192587912,0.6337795493304729,5.687502031546831
1746522012350388700,4.591388671875,7.354704006883502,0.8820143054425715,4.90625170110166
1746522012360377900,4.6013779296875,7.136765020313859,1.2437722726210951,4.240846010407806
1746522012370366700,4.61136669921875,6.621793052193522,1.7745117187157273,3.8549697932779785
1746522012380354800,4.621354736328125,5.779792192709445,2.468710373173654,3.871140883617103
1746522012390343700,4.63134375,4.690667168703675,3.0952842289090157,4.226185032370687
1746522012400332800,4.641332763671875,3.29768545460701,3.819066412986815,4.730794596430659
1746522012410321700,4.65132177734375,1.6100737284481526,4.4982524994909765,5.02244354685545
1746522012420309800,4.661309814453125,-0.11489596072435378,4.884965167444944,4.854696870431304
1746522012430299000,4.671298828125,-1.78039054762125,5.225110730013251,4.348022190535068
1746522012440287700,4.681287841796875,-3.0688942346334454,5.133063145434856,3.992401703198254
1746522012450275600,4.691275634765625,-3.5893338205099106,4.280750443033874,3.847911691460013
1746522012460264700,4.7012646484375,-2.6257050616979596,3.34273367986232,3.5351179539367554
1746522012470253800,4.71125390625,-0.5924877539992333,2.7086405345380307,3.173100459039211
1746522012480242700,4.72124267578125,1.1094359906286,1.639616341535747,2.7204946384608744
1746522012490230800,4.731230712890625,1.304815939387679,-0.11454524759054183,2.5252152274668216
1746522012500220000,4.741219970703125,-0.6730471453577279,-1.6060153929680585,2.7360274308964607
1746522012510208800,4.751208740234375,-3.9673441265702247,-1.9138348492100834,3.4576325631961224
1746522012520196600,4.761196533203125,-6.821448778575658,-1.2314046662181615,4.702203292718529
1746522012530185700,4.771185791015625,-8.391524843156338,-0.37923867881149054,5.280457938703894
1746522012540174800,4.7811748046875,-8.90050078573227,-0.01984977885186672,4.363561412711441
1746522012550163700,4.791163818359375,-8.428870531210302,-0.1733621782183647,2.335824582250416
1746522012560151800,4.80115185546875,-7.284878775507211,-0.7103381806150079,0.27140958773344753
1746522012570141000,4.811140869140625,-5.936832181680202,-1.5481781210273504,-0.9342376099590212
1746522012580129800,4.8211298828125,-4.7233203150272365,-2.592067580512166,-1.1967053279545157
1746522012590117600,4.83111767578125,-3.6689544697135683,-3.476378764720261,-1.17006727720201
1746522012600106800,4.841106689453125,-2.922026095587015,-3.8369916535168884,-0.9017362931963055
1746522012610095600,4.851095703125,-2.6572031927675006,-3.77223598048985,-0.15261954218000173
1746522012620084700,4.861084716796875,-2.2953929108798503,-3.52425519913882,0.22777334816791117
1746522012630072800,4.87107275390625,-1.3705027557849883,-2.980104190546274,-0.06778817259073257
1746522012640062000,4.88106201171875,-0.4724900862216949,-2.3912689677052197,-0.6742881583947687
1746522012650050800,4.89105078125,-0.4163263004511594,-1.8979750167772174,-1.698213930324465
1746522012660038700,4.90103857421875,-0.9733388364434241,-1.0603019573643804,-2.6674457698404788
1746522012670027800,4.91102783203125,-1.4316303014427423,-0.44502281810343264,-3.3481285246431827
1746522012680017200,4.92101708984375,-1.3316782273501158,-0.44890477410331364,-3.961391940167546
1746522012690006300,4.93100634765625,-0.15150865832865237,-0.6603358400836586,-4.308197545146942
1746522012699994400,4.940994384765625,2.0213889227390287,-0.9033633829414844,-3.791238202601671
1746522012709983200,4.950983154296875,4.258458823987842,-1.149088932711631,-2.6415245621204373
1746522012719972000,4.96097216796875,5.919522150439024,-0.9675598146505653,-1.583125223506987
1746522012729960200,4.970960205078125,6.429536203891039,-0.3666439856544137,-1.0620987045880406
1746522012739949300,4.98094921875,6.098004740411043,0.3366216262258589,-1.2867900149621068
1746522012749938200,4.990938232421875,5.643931185367703,1.2169216750964522,-2.1074583096906543
1746522012759927300,5.00092724609375,5.540570179614424,2.2066049126192926,-3.2369401862651106
1746522012769915400,5.010915283203125,5.762640566900372,2.946445666572451,-4.207328940731287
1746522012779904000,5.020904052734375,6.218536076673865,3.389215737313032,-4.637556925284862
1746522012789893000,5.03089306640625,6.733994367006421,3.686935532084107,-4.569298212572932
1746522012799882200,5.04088232421875,6.854510505700111,3.7212601187512275,-4.524724911352992
1746522012809870300,5.050870361328125,6.290806947636604,3.465048100149631,-4.873681556886434
1746522012819859200,5.060859130859375,4.841968321761489,2.940742778755724,-5.092936886751652
1746522012829848300,5.070848388671875,2.9348510903686282,2.1272601577475667,-4.893828272858261
1746522012839836200,5.080836181640625,1.3929407975643873,1.044153371118009,-4.761097672496736
1746522012849825000,5.090824951171875,0.7029448554933071,-0.052875850141048425,-4.782818213656545
1746522012859814100,5.100814208984375,0.08955752132833003,-1.1128691799476742,-4.869396719174087
1746522012869802200,5.11080224609375,-1.183055353590846,-2.1224153480648993,-4.671982634238899
1746522012879791400,5.120791259765625,-3.6521360213816165,-2.831421987815201,-3.6444627102747558
1746522012889780200,5.1307802734375,-7.1116048600941895,-2.4548367461219427,-1.3531089917831123
1746522012899769300,5.140769287109375,-10.73111579220295,-1.21810971583724,1.4958673574231565
1746522012909757200,5.150757080078125,-13.474114523416757,-0.5234565956100821,3.4564535825446248
1746522012919746000,5.16074609375,-14.83485225651264,-0.684479516737163,3.851811913768947
1746522012929735200,5.170735107421875,-14.254461767542361,-0.9129773067221045,2.6331489479631185
1746522012939723300,5.18072314453125,-12.58601183797121,-0.8125266354575753,0.6076880996100604
1746522012949712400,5.19071240234375,-10.782412264198063,-0.8388736673742532,-1.4405365153454244
1746522012959701200,5.200701171875,-8.995403175219893,-0.7958511027276516,-2.819594187377393
1746522012969690400,5.2106904296875,-7.387929400137066,-0.6479673568978905,-3.4259348179012536
1746522012979678200,5.22067822265625,-5.816179849386215,-0.6585778905004263,-3.2864772473722694
1746522012989667000,5.2306669921875,-3.9995395922541617,-0.6443564729243516,-2.3968114042632283
1746522012999656200,5.24065625,-2.0939923866569994,-0.47809565114378927,-1.1477819417662918
1746522013009644300,5.250644287109375,-0.0813724613070488,-0.2871747276201844,0.2443215281911194
1746522013019633400,5.26063330078125,2.0494658471882343,-0.12545739448815582,1.506704831649363
1746522013029622300,5.270622314453125,4.123258326381444,0.10241086542159318,2.623449976247549
1746522013039611400,5.280611328125,6.024814416515826,0.4256394877195358,3.7440731313228603
1746522013049599200,5.29059912109375,7.485913389027118,0.8028031138226389,4.391709064309299
1746522013059588000,5.300588134765625,8.418392976337671,1.3111752452865242,4.5384623448044055
1746522013069577200,5.3105771484375,8.995710633733868,1.8564143413767218,4.640295702598989
1746522013079565300,5.3205654296875,8.998346242934465,2.6123016825065015,4.906376788786053
1746522013089554400,5.330554443359375,8.504245797929167,3.534062599664926,5.170817998811602
1746522013099543300,5.340543212890625,7.666527145808935,4.276192925859988,5.3222185205906625
1746522013109532200,5.3505322265625,6.757566965773702,4.682772616061568,5.600711636844277
1746522013119520300,5.360520263671875,5.879564234060049,5.032725286895037,6.039893327704072
1746522013129509000,5.370509033203125,4.994204125320911,5.293886160075664,6.317344825950265
1746522013139498200,5.380498291015625,4.011821566200256,5.685297799500822,6.361007442066073
1746522013149486300,5.390486328125,2.804164855316281,6.371921634790301,6.47248336521387
1746522013159475200,5.40047509765625,1.481797477146983,7.085980004972219,6.244097218909859
1746522013169464000,5.410464111328125,0.015637714114785192,7.288505149310827,5.1971834431678055
1746522013179453200,5.420453125,-1.7526871326595543,6.5995327050685875,4.272736647926271
1746522013189441300,5.430441162109375,-2.9666806453496215,5.844426285183429,3.6393712323546406
1746522013199430100,5.44043017578125,-2.8768998366594314,5.145999783897399,2.4888702408879992
1746522013209419300,5.450419189453125,-1.992066966664791,3.290004836976528,0.5763079688969999
1746522013219408400,5.460408447265625,-0.7041185754477978,0.7466320215284824,-0.9326556014645844
1746522013229396200,5.470396240234375,0.3163040837317705,-2.1061936965823174,-1.987742089203
1746522013239385000,5.480385009765625,-0.04554243851304054,-3.9626200206577775,-2.330639434697479
1746522013249374200,5.490374267578125,-1.8245248729020356,-3.7015474102824926,-1.0792729075551033
1746522013259362300,5.5003623046875,-3.72180576993525,-2.959748215737939,0.48901430084742603
1746522013269351200,5.51035107421875,-4.646202004033327,-3.2367128072500226,0.7271751144517212
1746522013279340300,5.52034033203125,-3.90782167802155,-3.9157746828526254,0.3019053733600303
1746522013289329400,5.530329345703125,-2.2854513625800608,-4.3348862301081414,0.049628173456713554
1746522013299317200,5.540317138671875,-1.482621653011441,-4.695815052986145,-0.06888387713925913
1746522013309306000,5.55030615234375,-2.0239298393934964,-4.961367439123988,0.05072261762991547
1746522013319295200,5.560295166015625,-3.149626059949398,-4.943106975290179,0.11788385396134107
1746522013329283300,5.570283447265625,-3.9149358939409256,-4.599221641671657,-0.14174005544297397
1746522013339272200,5.580272216796875,-3.8622716407239435,-3.943752238580584,-0.5829725778853521
1746522013349261300,5.59026123046875,-3.344042716634273,-3.238334563232958,-0.8716433527495712
1746522013359250400,5.60025048828125,-2.786334599593282,-2.714946648944914,-1.1673846870545297
1746522013369238000,5.610238037109375,-1.965020554307103,-2.172754373204708,-1.4249530156359076
1746522013379227100,5.62022705078125,-0.9281424348890781,-1.7779034069806336,-1.6216323565557598
1746522013389216300,5.63021630859375,0.3593459376007318,-1.4937529956176876,-1.9099428102076053
1746522013399205000,5.640205078125,1.5211708716362713,-1.1946198269173502,-2.093546834846586
1746522013409193200,5.650193115234375,2.493783147370815,-0.9612769349887966,-2.0433365506529806
1746522013419182300,5.660182373046875,3.1947447200924155,-0.7578574721589684,-1.8927995138354599
1746522013429171200,5.670171142578125,3.6336014167815445,-0.47251463614106176,-1.882995035918802
1746522013439159000,5.680158935546875,3.93939579693675,-0.019457564663887022,-1.991697548830509
1746522013449148200,5.690148193359375,4.204982669866085,0.5943041557714343,-2.09225694116652
1746522013459137300,5.70013720703125,4.419306973069906,1.4030267227709292,-2.1511635959044098
1746522013469126100,5.710126220703125,4.635712174201012,2.4663424749985334,-1.9479004926800727
1746522013479114200,5.7201142578125,4.68012122476995,3.528839312058687,-1.5631151395268736
1746522013489103400,5.730103271484375,4.973099962493777,4.477978942269087,-1.1853539128568022
1746522013499092200,5.74009228515625,5.566782479235529,5.38598868971169,-0.8563326055668294
1746522013509080000,5.750080078125,5.64076658385694,5.997077099284529,-0.5527363930430262
1746522013519069200,5.760069091796875,4.543865080630779,5.968706744846701,-0.426905927458778
1746522013529058300,5.770058349609375,2.853873765859008,4.895065705698729,-1.3818256754405795
1746522013539047200,5.780047119140625,1.5264175401180982,2.429596798664331,-3.798347742345929
1746522013549035300,5.79003515625,1.1498720459133387,-0.13681670063138007,-6.903846491277218
1746522013559024400,5.8000244140625,1.7349655980080365,-2.291870581972599,-10.024737455129623
1746522013569013000,5.810012939453125,3.22711261973381,-4.617878411346673,-12.668317196214199
1746522013579001000,5.8200009765625,3.866320039331913,-6.632152533644438,-14.376556699860096
1746522013588990200,5.829990234375,1.2325877385228872,-7.382740599322319,-13.996673585665226
1746522013598979300,5.839979248046875,-5.03385750579536,-6.8335296769917,-11.460234368872642
1746522013608968200,5.84996826171875,-11.796361343449353,-5.679658916831016,-7.648916670316457
1746522013618956300,5.859956298828125,-16.055132886648178,-3.2938083209127185,-2.4201205297887323
1746522013628945200,5.869945068359375,-17.079952904003857,-0.9818237561941147,1.7054890358939765
1746522013638934000,5.87993408203125,-15.591509997493027,-0.5856944405972957,2.7244536052197215
1746522013648923100,5.889923095703125,-12.558531125849484,-0.8276865029275416,2.159292541824281
1746522013658911200,5.8999111328125,-9.984297892713546,-1.3166490005224942,0.92952380624488
1746522013668900400,5.909900390625,-6.683231563496589,-1.3053186282128095,0.08164068378917873
1746522013678889500,5.919889404296875,-3.357683703973889,-1.9294658413231371,-0.6144406426101923
1746522013688877300,5.929877197265625,-0.18373861080408097,-2.3567227011114356,-0.9262408390514552
1746522013698866400,5.939866455078125,3.121969991260767,-1.7484125240802764,-0.3815430102311074
1746522013708855300,5.949855224609375,5.766611808618903,-0.6699275520324707,0.5315634758286177
1746522013718844400,5.959844482421875,7.359049342611431,0.9096662824779749,1.61964585891366
1746522013728832500,5.96983251953125,7.556490315553545,2.529031570884585,2.863513408602774
1746522013738821600,5.979821533203125,6.684993312472105,3.624690965095162,4.01112481610775
1746522013748810200,5.989810302734375,5.310031239190697,4.304131026360392,4.861412734682857
1746522013758798300,5.99979833984375,4.245366118180751,4.853792615067959,5.660958892536163
1746522013768787500,6.009787353515625,3.671915657606721,5.01184967212677,6.240612299403548
1746522013778776300,6.0197763671875,3.717570324322581,5.014538472819328,6.302784385678172
1746522013788765400,6.029765380859375,4.414757639202476,5.037619488677382,6.102589145591855
1746522013798753500,6.03975341796875,5.479618575045466,5.065123581674695,5.9395227359384295
1746522013808742400,6.049742431640625,6.4901441095888615,5.094325710761547,5.801292076855898
1746522013818731300,6.059731201171875,7.266980715245008,5.06996400744319,5.491724607902765
1746522013828719400,6.06971923828125,7.730418310961126,5.1502831603050225,5.341126050156355
1746522013838708500,6.07970849609375,7.737973840907215,5.33546495565474,5.22242660549581
1746522013848697300,6.089697265625,7.1636050964444875,5.472566318446398,5.145371422865987
1746522013858686500,6.0996865234375,6.218941734865307,5.654512785136699,5.459173752909899
1746522013868674300,6.10967431640625,5.149230436381697,5.7962458993822334,5.857416699659824
1746522013878663400,6.119663330078125,3.873693782970309,5.744263783210515,6.218178933799266
1746522013888652300,6.12965234375,2.096837254694104,5.631951993760466,6.307298648232221
1746522013898640400,6.139640380859375,-0.32867958118021484,5.149087228518725,5.6750400248587125
1746522013908629500,6.14962939453125,-3.0929449723064897,4.060474830210208,4.189883300411701
1746522013918618400,6.159618408203125,-5.175699925634265,2.967621433331072,2.7332807625368236
1746522013928607500,6.169607421875,-5.755729180076718,1.8669632079198955,1.625292924889922
1746522013938595300,6.17959521484375,-5.152399129545688,0.19802870970219372,0.9760512372072786
1746522013948584200,6.189584228515625,-3.8986581283569333,-1.7901067627325653,0.9414896999791263
1746522013958573300,6.1995732421875,-2.9792811837255955,-3.3154166338697073,1.1756431776382028
1746522013968561400,6.2095615234375,-2.642448106706142,-4.212102146482468,2.0208117073729635
1746522013978550500,6.219550537109375,-3.2889836772352457,-4.0300823222950095,3.808385152235627
1746522013988539400,6.229539306640625,-5.0652679585814475,-3.4693557342156764,4.615027698090672
1746522013998528500,6.239528564453125,-7.609419357186556,-3.184662009756267,3.632582010605931
1746522014008516400,6.249516357421875,-9.977359617882966,-2.981400660097599,1.7040882291853428
1746522014018505200,6.259505126953125,-11.677391265153885,-2.791300113046169,-0.3072807097228244
1746522014028494300,6.269494384765625,-12.647510555028914,-2.8349367179378864,-2.0560636380180717
1746522014038482400,6.279482421875,-12.680012310183047,-3.041867403759062,-3.119004419453442
1746522014048471600,6.289471435546875,-11.418953094935416,-3.079204908506572,-3.4635520163729785
1746522014058460400,6.29946044921875,-9.01793824763298,-2.9112469274193047,-3.50843979036957
1746522014068449500,6.309449462890625,-6.14502601930499,-2.674481659826636,-3.4006209284245967
1746522014078437400,6.319437255859375,-3.358499696531892,-2.378554301430285,-3.2678631477952003
1746522014088426200,6.32942626953125,-1.2285983766257762,-2.018061531881988,-3.4561963929131627
1746522014098415400,6.339415283203125,0.001620294678211212,-1.6122876051053403,-3.7022351002857086
1746522014108403500,6.349403564453125,0.5951894141733646,-1.1660472279056906,-3.8833839868575333
1746522014118392600,6.359392578125,1.026469538128376,-0.7585404859870671,-4.204390256930887
1746522014128381400,6.36938134765625,1.5816075124204159,-0.3062389090523124,-4.386788851302862
1746522014138369300,6.379369384765625,2.147882966798544,0.0686208240225911,-4.419468885633349
1746522014148358400,6.3893583984375,2.6419407417058944,0.4341916274875402,-4.608116603527963
1746522014158347300,6.39934716796875,3.150280724465847,0.9262406929209828,-4.630274659322202
1746522014168336400,6.40933642578125,3.9234699135303495,1.4452312490329144,-4.55460625487566
1746522014178324500,6.419324462890625,4.867378072828054,1.9618883937612175,-4.619662372153997
1746522014188313600,6.429313720703125,5.9972407654136415,2.342154954315722,-4.733147589297593
1746522014198302500,6.439302490234375,7.06820410978496,2.707762582659721,-4.710922021225095
1746522014208290300,6.449290283203125,8.031369927260279,3.057710869579017,-4.558377297846973
1746522014218279400,6.459279541015625,9.023681175199151,3.592814940623939,-4.193275280937552
1746522014228268300,6.469268310546875,9.55123673056066,3.8204762797847387,-3.8180218723699446
1746522014238257400,6.47925732421875,9.162949360635876,3.6484248919039963,-3.2527506265982984
1746522014248245500,6.48924560546875,8.1063623321414,3.432510396899283,-3.1840608289927244
1746522014258234600,6.499234619140625,6.642545917364955,2.922485237531364,-3.9937893581643698
1746522014268223200,6.50922314453125,5.32183156709969,2.3919044891297814,-4.948051445955038
1746522014278211300,6.51921142578125,4.404081931409239,1.633467171256244,-6.10132950091958
1746522014288200400,6.529200439453125,3.5692496483802794,0.32068565981686115,-7.547108154702186
1746522014298189300,6.539189208984375,2.784481665202975,-1.1329527675554156,-8.429670157155394
1746522014308178400,6.549178466796875,1.603258203214407,-2.459327627800405,-8.574014915204048
1746522014318166500,6.55916650390625,-1.525278306955099,-3.5863904605343935,-7.545280939275026
1746522014328155400,6.5691552734375,-6.29903935393095,-4.12926341201514,-4.692948265378177
1746522014338144300,6.579144287109375,-11.345441284000874,-3.7492172162130473,-1.5299547743335364
1746522014348132400,6.58913232421875,-15.263919380593299,-2.517530225922167,0.7408844177871942
1746522014358121500,6.59912158203125,-17.017866157925127,-0.6243596868172288,2.3322141366682945
1746522014368110300,6.6091103515625,-16.83223837237358,0.44106911204159255,2.622815769997239
1746522014378098400,6.619098388671875,-15.021141720843314,0.18366642235070466,1.6790803369179368
1746522014388087600,6.629087646484375,-12.225864520859718,-0.23860914189368485,0.7341630005776881
1746522014398076400,6.639076416015625,-9.658672438406944,-0.4310460229381919,0.17438399554677306
1746522014408065300,6.649065185546875,-7.737097058072686,-0.5668152603432536,-0.18120222419425844
1746522014418053400,6.659053466796875,-6.1373506623715155,-0.6832140268459915,-0.23010018368028104
1746522014428042500,6.66904248046875,-4.460688200250268,-0.741162650206685,0.022735819149576127
1746522014438031400,6.67903125,-2.6161586501955982,-0.5594648975804448,0.6291326003074645
1746522014448019500,6.68901953125,-0.6439432159483433,-0.21322832466065883,1.413628926936537
1746522014458008300,6.69900830078125,1.3050953408509491,0.2280415706500411,2.2439004779212177
1746522014467997400,6.70899755859375,2.9522891319036484,0.7326102181777358,3.192251734232902
1746522014477986300,6.718986328125,4.2546489103108645,1.1334545795977116,4.2651629978016015
1746522014487974400,6.728974365234375,5.2865714531481265,1.2698705904737113,5.2594730183422564
1746522014497963500,6.738963623046875,6.14763824763,1.3563713545799254,5.763007062125205
1746522014507952400,6.748952392578125,6.9100967838436365,1.599807770499587,5.639420429944992
1746522014517940200,6.758940185546875,7.461803030121326,2.0460130763858557,5.37037727908194
1746522014527929300,6.768929443359375,7.674266800150275,2.4895357190594076,5.331123711580037
1746522014537918200,6.778918212890625,7.587699692809581,2.9034365459293126,5.312501428696513
1746522014547906300,6.78890625,7.365331783881783,3.4065213846400377,5.328614359107613
1746522014557895400,6.7988955078125,6.910272140410542,3.8386063952371474,5.392233137059211
1746522014567884500,6.808884521484375,6.3565808577954765,4.181494826772809,5.451479106754064
1746522014577872400,6.818872314453125,5.875111930826306,4.360248634901643,5.2445688791990275
1746522014587861200,6.828861328125,5.2679170215606685,4.535398865580558,4.963077750173211
1746522014597850400,6.838850341796875,4.278890202119946,4.7646346144512295,4.655423421365023
1746522014607839200,6.848839111328125,3.150839527392387,5.051895851311087,4.174105885565281
1746522014617827300,6.858827392578125,2.1436393378794194,5.326315434515476,3.7520921871274706
1746522014627816400,6.86881640625,1.454227333176136,5.306784220093489,3.633966450701654
1746522014637805600,6.8788056640625,1.0723685349941252,4.993005855447054,3.8589924729228016
1746522014647793400,6.88879345703125,1.3255074297606944,4.321985832002759,3.7400276553243397
1746522014657782300,6.8987822265625,2.363686110383272,3.018818536604941,2.901439819154143
1746522014667771400,6.908771484375,3.664851710569858,0.9697963415309786,1.7519708010837434
1746522014677760000,6.918760009765625,4.128633589679002,-1.257594169485569,0.6892079334985465
1746522014687748000,6.928748046875,2.6650708574026822,-2.878312626066804,-0.4282973818171769
1746522014697737200,6.9387373046875,-1.1464274584174154,-3.211855721630156,-1.283014880337566
1746522014707726000,6.94872607421875,-5.955394258809089,-2.576843123373389,-1.2067782475490123
1746522014717714200,6.958714111328125,-9.989165791010857,-1.6049559470430015,-1.054506495893374
1746522014727703000,6.968703125,-12.894955037546158,-1.009294531443715,-1.2328225701920688
1746522014737692200,6.978692138671875,-14.042992269247769,-1.3021692242711782,-1.3378097158424556
1746522014747680300,6.98868017578125,-13.551996219998598,-1.7746297921374439,-1.0068852783448994
1746522014757669000,6.998669189453125,-12.163819860357046,-2.7996120143175123,-0.6626110184740275
1746522014767658000,7.008657958984375,-9.958331092286109,-4.0973961553722615,-0.5119278146514669
1746522014777647000,7.018647216796875,-7.101021506759524,-4.869106504055857,-0.44292073125764725
1746522014787635200,7.02863525390625,-4.252056555730104,-5.130548532265425,-0.4169685438774526
1746522014797624000,7.0386240234375,-1.9689672461062668,-5.159738386392593,-0.09329679918820039
1746522014807613200,7.04861328125,-0.120380529615283,-5.18055847158134,0.154816211974062
1746522014817601300,7.058601318359375,1.528133696386218,-5.0366643799096344,-0.15936147245457394
1746522014827590000,7.06858984375,2.945699232119322,-4.647034363204241,-0.7449591198801994
1746522014837579000,7.0785791015625,4.03266503226459,-4.29859677310884,-1.2243886499762535
1746522014847567000,7.088567138671875,4.516436975479126,-3.7695211685732004,-1.5789245569467543
1746522014857556200,7.09855615234375,4.408475782454014,-3.028071810379624,-2.124948665934801
1746522014867545000,7.108545166015625,4.051604126012325,-2.3135529830791053,-2.579105223086476
1746522014877534200,7.1185341796875,3.732192139393091,-1.6477341815397142,-2.5853373954743146
1746522014887522300,7.128522216796875,3.6033915719568728,-1.2164401021245865,-1.8676845079317688
1746522014897511000,7.138510986328125,3.769126324036717,-1.0360725751888007,-0.6845620804540813
1746522014907500000,7.1485,4.5559489016562695,-0.8209181778363883,0.5249887005481869
1746522014917488000,7.158488037109375,6.246636381998658,-0.30591493779495355,0.9759422969400882
1746522014927477200,7.168477294921875,8.272839427021145,0.10858765436038374,0.19776077948100865
1746522014937466000,7.178466064453125,9.88081998258233,0.2500920744165778,-1.3618486169472337
1746522014947454200,7.1884541015625,10.814786593580246,0.7481945946700871,-2.785233652614057
1746522014957443000,7.198443115234375,9.840444717574119,0.769799838887155,-4.47878412117213
1746522014967432000,7.208431884765625,6.504750727090239,0.14914119854494928,-6.083190617638826
1746522014977420000,7.218419921875,2.4870406873732804,-0.6040438978888094,-6.8583052218079565
1746522014987409200,7.2284091796875,0.4279588705778122,-1.152078469916433,-6.498155566608905
1746522014997398000,7.23839794921875,0.1339268244087696,-1.331805506991595,-5.931863745617866
1746522015007387100,7.24838720703125,-0.5288648843944073,-1.7244634932160376,-5.791827498418092
1746522015017375000,7.258375,-2.3520962103545666,-1.5543784369722007,-6.138700907936692
1746522015027364000,7.268364013671875,-5.914544946548342,0.14634813376031816,-6.796302646881341
1746522015037353000,7.27835302734375,-11.024276900756359,2.0746673623315988,-7.5167171080917115
1746522015047341000,7.288341064453125,-14.724694430226087,4.289307551237941,-7.015396648705005
1746522015057330200,7.298330078125,-16.056141771429775,6.532005229240656,-5.50680293456912
1746522015067319000,7.308319091796875,-15.777459270083904,7.088668805664778,-4.464279795001447
1746522015077307000,7.318306884765625,-13.960363085877894,6.637152533888816,-3.6171655380263923
1746522015087296000,7.3282958984375,-11.07309850707054,5.874564818337559,-2.484193481248617
1746522015097285000,7.33828515625,-8.176834629249573,4.858581602910161,-1.967421624099463
1746522015107274000,7.34827392578125,-6.215196118596196,3.8788331916853784,-2.2126840864025055
1746522015117262000,7.358261962890625,-5.008889068755507,3.104241150085628,-2.130512583672255
1746522015127251200,7.368251220703125,-4.026533982163667,2.7375483568534253,-1.2327701093524694
1746522015137240000,7.378239990234375,-2.8582535883784295,2.446787295179069,-0.0928625176904723
1746522015147228000,7.388227783203125,-1.4781313558548688,1.9833762952089309,0.8385884206920862
1746522015157217000,7.398217041015625,0.15871289061903954,1.5335817326590417,1.938245506236702
1746522015167206100,7.4082060546875,2.1856740605324507,1.0332583214856683,3.079520258066058
1746522015177194200,7.4181943359375,4.492459303042292,0.5155933879543095,4.149736291201412
1746522015187183000,7.42818310546875,6.535480211874842,0.16651684236824513,4.696468840719759
1746522015197172200,7.438172119140625,8.018675280860066,0.4084499410528689,5.020290168213844
1746522015207160000,7.44816015625,8.793729094752669,0.6046528966326267,4.819027883417904
1746522015217149000,7.45814892578125,8.806412050715089,0.5175740403775125,4.483766293498873
1746522015227138000,7.468137939453125,8.26264711883068,0.5718824075397103,4.507321648870408
1746522015237126100,7.478126220703125,7.573321038845181,0.8855055085591972,5.0152644490063185
1746522015247115000,7.488114990234375,6.869438610240817,1.2335014923669396,5.982637070521712
1746522015257104100,7.498104248046875,5.951596035569906,1.7468983201250432,6.940099123397469
1746522015267093200,7.50809326171875,4.70856230635643,2.655927181482315,7.003055638048052
1746522015277081000,7.5180810546875,3.1637405100196596,3.6741347949609158,5.899842467457056
1746522015287070000,7.528070068359375,1.9893331577867268,4.748455048544705,4.375729112628102
1746522015297059000,7.53805908203125,1.5688193425178527,5.7478913260579105,3.2370898238688706
1746522015307047200,7.548047119140625,2.315669975233078,6.084592885652184,2.7643217974886296
1746522015317036000,7.5580361328125,4.021760776412487,5.566789493498206,3.185017691326141
1746522015327025200,7.568025146484375,5.8851984405547375,4.633889927209913,4.579675814202427
1746522015337013000,7.578012939453125,7.067697913828492,3.1968165579304095,6.244453777262568
1746522015347002000,7.588002197265625,6.419933093765378,1.2665496293574572,6.787946321946382
1746522015356991000,7.597990966796875,3.662202657365799,-1.0350921127840875,5.0430760005176065
1746522015366979000,7.60797900390625,-0.7912485773682594,-2.839627798363566,2.758522755821049
1746522015376968200,7.61796826171875,-4.961455701929331,-2.749854296196997,2.23415152958408
1746522015386957000,7.62795703125,-7.427729495605826,-0.9652870474129914,3.2257892621755597
1746522015396945000,7.63794482421875,-9.162342042392492,0.19777590398490427,3.120136053831875
1746522015406934000,7.64793408203125,-10.774068798744677,-0.01772328821718693,2.331279632297158
1746522015416923100,7.657923095703125,-11.704559842586516,-0.6959498820394278,2.315223254378885
1746522015426912000,7.667912109375,-11.559729346847533,-1.380334852360934,2.5142998656988143
1746522015436900000,7.677900146484375,-10.35488360173106,-2.014880125366896,2.5136180209144947
1746522015446889200,7.68788916015625,-8.682897314727306,-2.5570564728856087,1.9879370272532104
1746522015456878000,7.697878173828125,-6.817953922197223,-2.91173120380491,0.8791371425710618
1746522015466866000,7.707865966796875,-4.883557054212689,-2.917956654191017,-0.15158559602238236
1746522015476855000,7.71785498046875,-3.027944969129562,-2.704390768139064,-0.9281903656840323
1746522015486844200,7.72784423828125,-1.317940209376812,-2.329075692512095,-1.588843308892846
1746522015496832300,7.737832275390625,0.25657120730280875,-1.950328304348886,-2.026582107467949
1746522015506821000,7.747821044921875,1.6482237186223267,-1.719646302192658,-2.383873450626433
1746522015516810200,7.757810302734375,2.7707132520914075,-1.5722250593081115,-2.685817292833328
1746522015526798000,7.767798095703125,3.600027063959837,-1.548298970928043,-3.1095570844113825
1746522015536787000,7.777786865234375,4.2758489347279065,-1.6152486468680203,-3.5690105789273976
1746522015546776000,7.787776123046875,5.037683201563358,-1.7770824459865688,-4.121517912454903
1746522015556765200,7.79776513671875,6.144143391251563,-2.0748644923388957,-4.778786473922431
1746522015566753000,7.8077529296875,7.583481782853603,-2.1557713819608093,-5.15392531619966
1746522015576742100,7.8177421875,8.618959387823939,-1.843182665490359,-5.042059516951442
1746522015586731300,7.827731201171875,8.433641983395814,-1.5144592451684176,-5.152365811797976
1746522015596719000,7.837718994140625,7.254903323960304,-1.1234586707621812,-5.244494644919038
1746522015606708000,7.8477080078125,5.700854265072941,-0.445066949506104,-4.612882795016468
1746522015616697000,7.857697021484375,4.475595262002945,0.02292597142681479,-4.073654045256972
1746522015626685200,7.867685302734375,3.784130416423082,0.4611722811326384,-3.801644445803761
1746522015636674000,7.877674072265625,4.02024511115253,1.003197968134284,-4.068283458134531
1746522015646663200,7.8876630859375,4.776994037547707,1.3815736003756522,-5.543963329184055
1746522015656651000,7.897651123046875,5.318559998083114,1.891203622946143,-7.211123218944668
1746522015666640100,7.90764013671875,5.342005755600333,2.224819491484761,-8.965577945798636
1746522015676629200,7.917629150390625,3.8840982726067304,2.1190363731510935,-10.483781199800967
1746522015686618400,7.927618408203125,0.8645394390285015,1.622611430720985,-11.73521333952546
1746522015696606500,7.9376064453125,-2.482650927981734,1.2611407560512422,-11.457400606751442
1746522015706595300,7.94759521484375,-5.33829988681972,1.2683213152050972,-8.902488160157203
1746522015716584400,7.95758447265625,-8.465233637967705,1.2764748110443354,-5.4217187592625615
1746522015726572300,7.967572265625,-11.458927377927303,1.3025721059836446,-2.8851500708714126
1746522015736561400,7.9775615234375,-13.128386192280054,1.5777183960273862,-1.9964092336528
1746522015746550300,7.98755029296875,-13.261251524937151,2.5666347408309576,-1.36386024903059
1746522015756538400,7.997538330078125,-12.209981892073154,3.2949928545221683,-1.0963936998344956
1746522015766527500,8.007527587890625,-10.671244384086132,3.005095423939824,-1.5355938031338154
1746522015776516400,8.017516357421876,-8.661883752793074,2.4866207083955407,-1.5854473828442395
1746522015786504200,8.027504150390625,-6.349230495032668,2.167616425794363,-1.1185682683721183
1746522015796493300,8.037493408203124,-4.364048027184605,1.8470790884070096,-0.8414054508741945
1746522015806482400,8.047482421875,-2.71651170630455,1.4803594071678816,-0.43943336406592276
1746522015816471300,8.05747119140625,-1.2488497220158576,1.197735036328435,0.7970033415026962
1746522015826459400,8.06745947265625,-0.06425123063623905,1.052169942704588,2.4108982356742024
1746522015836448500,8.077448486328125,0.8518810329854488,0.9790794259220361,3.295741919323802
1746522015846437400,8.087437255859374,1.6203607291847466,0.8591580382511019,3.557434999684989
1746522015856425200,8.09742529296875,2.221347431460023,0.6732436908431351,4.403343388001621
1746522015866414300,8.107414306640624,2.959773350179195,0.5684698956824839,5.594810888367891
1746522015876403500,8.117403564453125,3.8583623583257194,0.5914879293069243,6.34702567846477
1746522015886391300,8.127391357421875,4.793958031830192,0.6934981049731374,6.642251318332552
1746522015896380400,8.13738037109375,5.662800721010566,1.0828599722616374,6.627470513308048
1746522015906369500,8.14736962890625,6.131034318831563,1.0441386119402944,6.265836172509193
1746522015916358400,8.1573583984375,6.167827633699774,0.9108967010557651,6.070384327557683
1746522015926346200,8.16734619140625,5.83103371964693,1.047610087443143,6.089509883788228
1746522015936335400,8.17733544921875,5.493289957523346,1.3487566417925059,6.438894399344921
1746522015946324200,8.18732421875,5.359391190165281,1.5752616505250334,6.953821359279751
1746522015956312300,8.197312255859375,5.235038834309577,1.7926881575278937,7.245196753460168
1746522015966301400,8.207301513671876,5.031684837931394,1.852413289041817,6.738371851438283
1746522015976290600,8.21729052734375,4.419571176964045,1.7558479347780347,5.854169680562615
1746522015986278400,8.2272783203125,3.356961819440126,1.936231828326732,4.790784954752028
1746522015996267300,8.237267333984375,1.8149550805240868,2.6439456517875195,3.9171623378187417
1746522016006256400,8.24725634765625,-0.1569102251112461,3.665639646077156,3.757527948440611
1746522016016244500,8.257244384765626,-1.7771499582648276,4.607637003317475,4.430110691156983
1746522016026233300,8.2672333984375,-2.5384908886253834,4.707532671047747,5.525280256024002
1746522016036222500,8.277222412109374,-2.439733577275276,4.081588345387578,6.718133950051665
1746522016046211300,8.28721142578125,-1.669842260712385,2.7840146322131156,7.30625415649116
1746522016056199400,8.297199462890624,-0.8998416385561228,1.0259655341289937,6.621772009405493
1746522016066188300,8.307188232421876,-1.4858943910717963,-0.7598169356636703,4.810448271121085
1746522016076177400,8.317177490234375,-3.3223201296478506,-1.5462914304979145,3.0364819113284347
1746522016086165500,8.32716552734375,-5.560601744773984,-0.7358199740044772,2.78004368275553
1746522016096154400,8.337154296875,-7.602613768824934,0.4191780366204679,2.8779034607440233
1746522016106143200,8.347143310546874,-9.268269683763384,0.9363158044725656,2.040730752068758
1746522016116131300,8.35713134765625,-10.134735122418403,0.7032999525412916,0.8056606952108443
1746522016126120400,8.367120361328125,-10.130669188153743,0.17635843742489812,0.21348785237967965
1746522016136109300,8.377109375,-9.330733446460961,-0.45544849665835496,0.3289855783894658
1746522016146098400,8.387098388671875,-7.8666721170127385,-1.3039993623077868,0.2676519887655973
1746522016156086500,8.39708642578125,-5.938051494342089,-2.035385591648519,-0.03829349029809236
1746522016166075400,8.407075439453125,-3.8873330167442557,-2.521390993003547,-0.5581725196823477
1746522016176064300,8.417064208984375,-2.045844734081626,-2.723026787286997,-1.5312082815259693
1746522016186052400,8.42705224609375,-0.41576457491517066,-2.6416826752915976,-2.471244860087335
1746522016196041500,8.43704150390625,1.0377946497410535,-2.4593466247618196,-3.0495100274667144
1746522016206030300,8.4470302734375,2.3039175781190395,-2.2290910313241183,-3.3379888234227892
1746522016216018400,8.457018310546875,2.9648014074742792,-1.911462859381735,-3.543830837224424
1746522016226007600,8.467007568359374,2.7579905486404894,-1.497332169278711,-3.894004165071249
1746522016235996200,8.47699609375,2.05417358648777,-1.0586967871900648,-4.2972468198046085
1746522016245984300,8.486984375,1.1846791554003953,-0.846768146951124,-4.8587151661619545
1746522016255973400,8.496973388671876,0.745769267219305,-0.6323859760802238,-5.199377153819799
1746522016265962200,8.506962158203125,0.7346107443451881,-0.40371290259361264,-5.224957585278153
1746522016275951400,8.516951416015624,1.3231705112457275,-0.4233758536364883,-5.463965663361549
1746522016285939500,8.526939453125,2.7573598495215177,-0.3289855783894658,-5.67366522937417
1746522016295928300,8.53692822265625,4.582845676410198,0.048925212819129225,-5.4714358531117435
1746522016305917200,8.546917236328126,6.40799248060286,0.3245065332792699,-4.953248430076242
1746522016315905300,8.5569052734375,7.898229284793138,0.7570150299854577,-4.303656394585967
1746522016325894400,8.566894287109376,9.068679423832894,1.3012730060838162,-3.738471073532104
1746522016335883300,8.57688330078125,9.739742117375135,1.6969158533379434,-3.7935681068539617
1746522016345871400,8.586871337890624,9.420640511879323,2.2359945271022617,-4.934576462832093
1746522016355860500,8.596860595703125,8.618536193975805,2.8449866950482128,-6.9117726081013675
1746522016365849300,8.606849365234375,7.632639489254355,3.3819264570876952,-9.111139093899727
1746522016375838200,8.616838134765626,5.696599530237913,4.0155671824693675,-11.516549545812605
1746522016385826300,8.626826416015625,3.3260470412164924,4.428697317227721,-13.493379195857047
1746522016395815400,8.6368154296875,1.2976204749256373,3.902167013260722,-13.089697857445477
1746522016405804300,8.64680419921875,-1.0445996535807847,3.853724761652946,-9.838982243806123
1746522016415792400,8.65679248046875,-4.58565898026526,4.183554097390175,-6.538666440695524
1746522016425781200,8.66678125,-9.348676514908671,3.900823781958222,-3.8592072847172614
1746522016435770400,8.676770263671875,-13.705712617504595,3.2561820623517033,-1.6909493461489677
1746522016445758500,8.686758544921876,-15.895598158252238,3.536392503917217,1.0757871112659574
1746522016455747300,8.696747314453125,-15.379072530949115,4.2126258780956265,3.879616743278503
1746522016465736400,8.706736328125,-14.026422242718935,3.5840295766219494,4.674177806195616
1746522016475724500,8.716724609375,-12.667891664278507,2.350510840859264,4.695422254276275
1746522016485713200,8.726713134765625,-11.893121928024291,1.2277860373295844,5.719804464736581
1746522016495702300,8.736702392578126,-11.364148322558401,-0.007799129443615675,6.202187583941221
1746522016505691400,8.74669140625,-10.198763650214671,-0.901165288375318,6.263187119305133
1746522016515679200,8.75667919921875,-8.364996317192912,-1.6567933940470219,6.644021250614523
1746522016525668400,8.76666845703125,-6.128218092367053,-2.416602730926126,7.123671145462989
1746522016535657500,8.776657470703125,-3.7511949460268017,-2.99531111202836,7.37479343971014
1746522016545645300,8.786645263671875,-1.034000518155098,-3.2511168879166243,7.661319055771827
1746522016555634200,8.79663427734375,1.9028595739483831,-3.266252205467224,8.152733038172125
1746522016565623300,8.806623291015624,4.694492279949784,-3.065483841668069,8.545073482879996
1746522016575611400,8.816611328125,7.148931843447685,-2.454859250214696,9.09693988815546
1746522016585600300,8.826600341796874,9.229519389608502,-1.5302797685042022,9.26581586087048
1746522016595589400,8.83658935546875,10.616826565200089,-0.6405038891494274,8.693435659876465
1746522016605577500,8.846577392578125,11.208806954199074,0.19068419215828178,7.589518724930286
1746522016615566300,8.85656640625,11.162684669971465,0.8709653804227709,6.369008962213993
1746522016625555200,8.86655517578125,10.720683245515822,1.5342391736544667,5.360995118230581
1746522016635544300,8.87654443359375,10.090880783122778,2.20897324918583,4.850047291059791
1746522016645532400,8.886532470703125,9.416243738225102,2.963027675800025,4.789979775848985
1746522016655521300,8.896521240234375,8.789525797843933,3.6863211995780465,4.76192886262387
1746522016665510400,8.906510498046876,8.231649923020601,4.401160783265531,4.767067686817049
1746522016675498200,8.916498291015625,7.7045421114265915,5.167648721125722,4.664512736749649
1746522016685487400,8.9264873046875,7.164056931865215,5.847779102742671,4.236882075212896
1746522016695476200,8.936476318359375,6.364440339124203,6.363627853697538,3.5074162925407286
1746522016705464300,8.94646435546875,5.1090381267249585,6.778432643669843,2.685168473535776
1746522016715453400,8.956453369140625,3.633971419137716,7.264938395762443,1.9843423637621103
1746522016725442300,8.9664423828125,2.3781536116749047,7.550685428667068,1.6528614614255726
1746522016735430100,8.97643017578125,1.5720546711772678,7.052313882213831,1.8944985728383064
1746522016745419300,8.986419189453125,1.3724246637582778,5.900070430994034,2.602181270508468
1746522016755408400,8.996408447265624,1.821128216201067,4.797193945011497,3.4577775246247646
1746522016765396500,9.006396484375,2.5965695681065317,3.9550212360918517,3.860984231261909
1746522016775385300,9.01638525390625,2.545595167672634,3.0017952133506536,3.0924346846967934
1746522016785374500,9.02637451171875,0.49944882029592985,1.5046873543471098,0.6848690275114029
1746522016795363300,9.03636328125,-3.0637989573210476,0.8521833769328891,-1.2020056263197212
1746522016805351200,9.04635107421875,-6.756709472161531,1.7020906256273387,-1.3692505637668073
1746522016815340300,9.05634033203125,-9.934790057700871,2.525812608838081,-1.2881006591692565
1746522016825329400,9.066329345703124,-12.606610389363764,1.8390093253284692,-2.130176045194268
1746522016835317200,9.076317138671875,-14.196848952007294,0.8689769830845296,-2.1751816003516313
1746522016845306400,9.086306396484375,-14.55374398932457,0.16661811078563332,-0.9162786863550543
1746522016855295500,9.09629541015625,-13.821592913091182,-0.8560336226202547,-0.9777481042530387
1746522016865283300,9.106283447265625,-12.261148600208758,-1.531830212816596,-2.3897259760469196
1746522016875272200,9.116272216796874,-10.530413187116384,-1.5270781959839164,-3.7542239384591576
1746522016885261300,9.12626123046875,-9.442790384367107,-1.2369070630267263,-4.597023839366436
1746522016895249400,9.13624951171875,-8.719062853085994,-0.8376312660977244,-4.916232996889948
1746522016905238300,9.14623828125,-7.68721922070384,-0.5809047221027315,-5.04778783147037
1746522016915227400,9.156227294921875,-5.959065056276321,-0.5154930693849921,-4.896400169172883
1746522016925215200,9.16621533203125,-3.6686037565797567,-0.48373935611918567,-4.5017347886487835
1746522016935204400,9.176204345703125,-1.2531962267875671,-0.5770129753611981,-4.253357116934657
1746522016945193200,9.186193115234374,0.9722358436375855,-0.7328807056821882,-4.198289601968229
1746522016955182300,9.196182373046875,3.046847237998247,-0.7908207073450088,-4.101602959412336
1746522016965170400,9.20617041015625,4.9438838048815725,-0.8108031726658343,-4.057916085638106
1746522016975159300,9.2161591796875,6.499461388510465,-0.7652271241441368,-4.5129123084843155
1746522016985148400,9.2261484375,7.700745057231187,-0.6234001941353082,-5.176038948330283
1746522016995136300,9.23613623046875,8.607485807651281,-0.8336696689903735,-5.556732794386148
1746522017005125400,9.24612548828125,8.962447246557474,-0.7021070894949137,-5.495152828785777
1746522017015114200,9.2561142578125,9.222513310238718,-0.3590244505614042,-5.451200289812684
1746522017025102300,9.266102294921875,9.35591348042488,-0.3665305884078145,-5.29615059787631
1746522017035091500,9.276091552734375,9.613383682394026,0.0391983301833272,-4.561672832261026
1746522017045080300,9.286080322265626,10.029864881145954,0.7446668589353561,-3.7266692843183873
1746522017055068200,9.296068115234375,10.231880322396755,1.2834423119693994,-3.1389293093681334
1746522017065057300,9.306057373046874,10.070458757340907,1.306348848043382,-3.1476734645769
1746522017075046400,9.31604638671875,9.676910105887055,1.1069336524188518,-3.791552967639267
1746522017085034500,9.326034423828125,9.113187843123077,1.1485998340204358,-4.808450375302136
1746522017095023400,9.3360234375,8.558387722483277,1.2797513484969734,-6.072538290721178
1746522017105012500,9.346012451171875,8.144626888605952,0.978460417240858,-7.690512417030334
1746522017115001300,9.35600146484375,7.876823508670926,0.33121173000633714,-9.15410203731358
1746522017124989200,9.3659892578125,7.114057513943314,-0.21862170813679693,-9.747087803962826
1746522017134978300,9.375978271484374,5.476284462186694,-0.8495739250868558,-9.77634254001975
1746522017144967400,9.385967529296876,3.175003077790141,-1.1807459076046942,-8.556110425201059
1746522017154955300,9.395955322265625,-0.845450123155117,-0.39245530325919387,-4.673796113401651
1746522017164944400,9.4059443359375,-7.6519649519711725,0.7906874363541603,-1.2296980084307492
1746522017174933500,9.41593359375,-14.054473448204993,2.904752889224887,0.7252683309823275
1746522017184921300,9.42592138671875,-17.59295503335595,5.533115771955251,2.687005918096006
1746522017194910200,9.43591015625,-19.002759871959686,6.7181368726611135,3.2798937773287293
1746522017204899300,9.4458994140625,-17.95993190422654,6.57444385651946,1.9667372950971125
1746522017214887400,9.455887451171876,-14.590592249250411,5.965050560426712,-0.05190514194536954
1746522017224876300,9.465876220703125,-10.647278986608981,4.645992745196819,-1.203090645077452
1746522017234865400,9.475865478515624,-6.902970877486467,3.048620677411556,-0.5408659225072712
1746522017244853200,9.485853271484375,-3.893981368717551,1.9192486909523605,0.9027380175847559
1746522017254842400,9.49584228515625,-2.0316864448696372,0.999923914899677,2.09545515268594
1746522017264831200,9.505831298828125,-0.9586807810157537,0.32028515272457153,2.5373355811104177
1746522017274819300,9.5158193359375,-0.06864215907156467,-0.05027028901884332,2.2647578263804315
1746522017284808400,9.525808349609376,1.0169266337573528,0.026628196078771725,1.727269782808423
1746522017294797300,9.53579736328125,2.150510392692685,0.31880634887628256,1.2927325567536054
1746522017304786400,9.545786376953124,2.946349220460653,0.5840144881537184,1.3300459499731658
1746522017314774300,9.555774169921875,3.3198756591051817,0.763359503641352,1.8346385628983377
1746522017324763400,9.565763427734375,3.3819974764972924,0.7586275797486305,2.80722541193068
1746522017334752300,9.575752197265626,3.1779566668987274,0.6147215053781867,4.0349391146764155
1746522017344740400,9.585740234375,2.736825595536828,0.39703404588419944,5.189377153331041
1746522017354729500,9.5957294921875,2.312928567570448,0.22231212361995129,5.80380376741588
1746522017364718300,9.60571826171875,2.1596868018388746,0.21213040988873688,5.807830538713931
1746522017374706200,9.6157060546875,2.5582179178804156,0.18870441651791334,5.473983784028888
1746522017384695300,9.6256953125,3.5155841091662645,0.2589908721977845,5.241986461490392
1746522017394684400,9.635684326171875,4.520370807796716,0.43241117381155486,5.076033098223805
1746522017404672500,9.645672607421876,5.223615523019433,0.5946984888512641,4.943484576430916
1746522017414661400,9.655661376953125,5.350146976479888,0.8552274938691407,5.041653858759999
1746522017424650500,9.665650390625,4.611923302334547,1.309670685942471,5.155670114040374
1746522017434638300,9.675638427734375,3.1621365819543596,2.1070298551455138,5.154303501862287
1746522017444627200,9.685627197265624,1.2571785744220019,2.92221285033077,5.372638794273138
1746522017454616300,9.6956162109375,-0.7565794150471686,3.211097889000177,5.849752448642254
1746522017464604400,9.7056044921875,-2.007067551919818,3.5195837001964447,6.627663990053534
1746522017474593300,9.71559326171875,-1.9159300679236648,3.942363122309744,7.608488798338175
1746522017484582400,9.72558251953125,-0.6140577807724475,3.9848640011698007,8.543169110563397
1746522017494571500,9.735571533203125,1.1071920110940932,3.202701524315774,8.172193525445461
1746522017504559400,9.745559326171875,2.137123087853193,1.5475088434636592,6.42041298623681
1746522017514548200,9.75554833984375,2.1717028183251617,-0.10942907362058758,4.38400448128134
1746522017524537300,9.765537353515626,0.8868599919080734,-0.467038542817533,3.3680259420290586
1746522017534525400,9.775525390625,-1.6813433134138582,0.2610177749155089,3.3683158648863434
1746522017544514300,9.785514404296874,-5.06267092782557,0.9207412187218665,3.6853263433218
1746522017554503400,9.79550341796875,-8.852712614119053,1.3387344294719397,3.9975481261759995
1746522017564491300,9.8054912109375,-12.101728438103198,1.4926296906761825,4.036300758418441
1746522017574480400,9.81548046875,-13.879888450193404,1.2479299768224357,3.25091025942862
1746522017584469200,9.82546923828125,-13.801664223784208,0.716701285906136,1.6753933189682662
1746522017594457300,9.835457275390626,-12.128887663185596,-0.1186624371184036,-0.30986535592116415
1746522017604446500,9.845446533203125,-9.702623808336257,-0.9499122220180928,-2.0640052446722983
1746522017614435300,9.855435302734374,-7.338157945752143,-1.595825715126097,-3.3389290268823504
1746522017624423200,9.865423095703125,-5.2401843805044885,-2.064906431295723,-4.059625227643549
1746522017634412300,9.875412353515625,-3.319807854565978,-2.303197008759528,-4.29857748388648
1746522017644401400,9.8854013671875,-1.5907155325055122,-2.37999500175789,-4.3828465434178705
1746522017654389500,9.895389404296875,-0.13388590787649154,-2.312883851645887,-4.45837115547955
1746522017664378400,9.90537841796875,1.0840279931277037,-2.203081414668262,-4.558114847518503
1746522017674367500,9.915367431640625,2.1854840909183024,-1.9862683633886276,-4.611419444465637
1746522017684355300,9.925355224609374,3.169724260604381,-1.7191896444663404,-4.7339176968872545
1746522017694344200,9.93534423828125,4.0452480349838735,-1.4725734294667838,-4.83115788167268
1746522017704333300,9.945333251953125,4.782205634716153,-1.2185944306142626,-4.726052662600576
1746522017714322400,9.955322509765624,5.432857408392429,-1.0266801121391356,-4.397352038632333
1746522017724310300,9.965310302734375,5.944525074270367,-0.9126553812913596,-3.97104590369761
1746522017734299100,9.975299072265624,6.208237385499477,-0.7825852323107421,-3.428766241934895
1746522017744288300,9.985288330078125,6.327360024008154,-0.500801184752956,-2.648552268800139
1746522017754276400,9.9952763671875,6.555837940248846,-0.015440109183453022,-1.9689786442831156
1746522017764265200,10.00526513671875,6.976759751796722,0.4095376632243395,-2.1447557746887207
1746522017774254300,10.01525439453125,7.402270060178637,0.422452820507437,-3.2235777236059304
1746522017784242200,10.0252421875,7.606915849933028,0.013426687001809478,-5.210906263571977
1746522017794231300,10.035231201171875,7.554062796145677,-0.16915654322206974,-7.227256607621908
1746522017804220200,10.04522021484375,6.394077352496981,-0.06528166966252029,-8.699949571815132
1746522017814208300,10.055208251953125,3.9593262398093936,-0.29445772423520683,-9.393362628853321
1746522017824197400,10.065197265625,1.2960574633926152,-0.6149607940267771,-8.923285448992251
1746522017834186200,10.075186279296876,-1.944227941647172,-0.8448062722936273,-6.7826347715348
1746522017844174000,10.085174072265625,-6.359119436362385,-1.356271693597734,-4.61770860773772
1746522017854163200,10.0951630859375,-10.737353809809685,-1.3776467823207377,-4.460619226667284
1746522017864152300,10.10515234375,-13.51931560114622,0.19157303075678644,-4.698516420899331
1746522017874140200,10.11514013671875,-14.785130486488342,2.394100245608389,-4.134967176614701
1746522017884129300,10.12512939453125,-14.881333437180519,3.5506034000992774,-3.2757606230467555
1746522017894118400,10.135118408203125,-14.49447346971035,3.518060728412866,-2.5076263792842624
1746522017904106200,10.145106201171876,-13.519533043289183,2.9578964503914116,-1.9986952987633644
1746522017914095000,10.15509521484375,-11.877129409122466,2.6784111082300543,-1.6708816867627203
1746522017924084200,10.165084228515624,-9.983645566284656,2.431288697274029,-1.3865496352225541
1746522017934072300,10.175072265625,-7.802544220495223,2.181790497097373,-1.553779594296217
1746522017944061200,10.185061279296875,-5.272001660525799,2.152175403295457,-1.81658092816025
1746522017954050300,10.19505029296875,-2.6242829199403523,2.1843353592745958,-1.5458707208678126
1746522017964038100,10.2050380859375,-0.1436257961243391,2.5472914501965045,-0.7226631169199943
1746522017974027300,10.21502734375,2.029699070444703,2.9347654579117894,0.3531058741673827
1746522017984016100,10.22501611328125,3.7161037589013572,3.0547035044565796,1.4792340563997626
1746522017994004200,10.235004150390624,4.996377377706766,3.060676733647287,2.6554405670091508
1746522018003993300,10.244993408203126,6.016910511523485,2.972748274825513,4.243745238980651
1746522018013982200,10.254982177734375,6.925404827612638,2.6509917709067463,5.868993155685067
1746522018023970000,10.264969970703126,7.955043643426895,2.345024956794083,6.798819013616442
1746522018033959200,10.274959228515625,9.024779491829872,2.4160841138795015,7.4452499547272915
1746522018043948300,10.2849482421875,10.011225647127628,2.737149712924659,8.050908740466832
1746522018053936000,10.29493603515625,10.86572884531021,3.084671941740811,8.314228252986073
1746522018063925200,10.30492529296875,11.52359069649577,3.422795643092692,7.975881848794222
1746522018073914400,10.314914306640626,11.820599128127098,3.673015727803111,7.221596097642183
1746522018083902200,10.324902099609375,11.424248863255977,3.818010766454041,6.452310930278897
1746522018093891000,10.33489111328125,10.153654926943778,3.9087493142604828,5.874501689973473
1746522018103880200,10.344880126953125,8.466300974938273,4.183564618784189,6.010039456710219
1746522018113868300,10.354868408203124,6.537802517342567,4.685550848603248,7.38335317826271
1746522018123857200,10.364857177734375,3.8598563962757586,4.942594349592924,9.1114862999022
1746522018133846300,10.37484619140625,1.2633534636646508,4.431951935109496,9.825067115700245
1746522018143834000,10.384834228515626,-0.5363064325720072,3.8190938855156302,9.310525940212607
1746522018153823200,10.3948232421875,-1.733090451785922,3.8344761635646223,8.436463470557332
1746522018163812000,10.40481201171875,-1.8398381773680448,3.7409172976404426,7.269406481087207
1746522018173800200,10.41480029296875,-0.974456442296505,2.6911294277668,5.703210472810268
1746522018183789300,10.424789306640625,0.11033259833157062,0.7815498979136347,4.178095247462392
1746522018193778200,10.434778076171876,0.24633622901439664,-1.3061518641665577,3.123338941526413
1746522018203766300,10.444766357421875,-0.8443243339955806,-2.4634476303398607,3.025787498834729
1746522018213755100,10.454755126953126,-2.2436995485216378,-1.806853314872086,4.0315529793694616
1746522018223744300,10.464744140625,-3.9642537593394516,-0.35019817002713677,4.732627949337661
1746522018233732000,10.474732177734374,-6.402355351498723,0.42578094201683997,3.606706395593285
1746522018243721200,10.48472119140625,-8.89773775075972,0.611774053749442,1.0660467115614563
1746522018253710300,10.49471044921875,-10.819373921370506,0.4146761951565742,-1.393797122132778
1746522018263698400,10.504698486328126,-12.009458150684832,0.17254399370327592,-2.8618513206094502
1746522018273687000,10.51468701171875,-12.37561785995364,-0.025223434714227912,-3.586145545862615
1746522018283676200,10.52467626953125,-11.918473811423778,-0.6050356854051351,-3.759184483475983
1746522018293664300,10.534664306640625,-10.651802016991375,-1.0240741674244402,-3.3282512732625005
1746522018303653000,10.544653076171874,-8.746549994948506,-1.1498084791578351,-2.8746561493858693
1746522018313642200,10.554642333984376,-6.317219738265871,-1.2379621250376105,-2.701157485306263
1746522018323630300,10.56463037109375,-3.5061528484761713,-1.190837678030133,-2.6160487600803375
1746522018333619200,10.574619140625,-0.5317530070513486,-1.2433411877274512,-2.610817873689532
1746522018343608000,10.584608154296875,2.3384371028363704,-1.3782127456404267,-2.894481670579314
1746522018353596200,10.59459619140625,4.873844053971768,-1.5533340424858033,-3.591723345994949
1746522018363585300,10.604585205078125,6.8968404119074345,-1.6536815456368028,-4.382950003792345
1746522018373574100,10.61457421875,8.259037111639977,-1.4980372488081455,-5.200823260974884
1746522018383562200,10.624562255859376,8.841534217500685,-1.1104283626668154,-6.192484520572424
1746522018393551000,10.634551025390625,8.467655312156676,-0.5444079059630632,-7.115942597037553
1746522018403540200,10.644540283203124,7.094657816946506,0.04520736133977771,-8.013010679227113
1746522018413528300,10.6545283203125,5.5217807234704495,0.6297198986761272,-8.725240080416203
1746522018423517200,10.66451708984375,4.027103306484222,1.0939712949931621,-8.668701616114378
1746522018433506300,10.67450634765625,3.3430501984655856,1.4692765798784793,-7.919311235788464
1746522018443494400,10.684494384765625,3.4072879850983617,1.6136029254876076,-6.6917527236044405
1746522018453483300,10.694483154296876,4.159762302914261,1.3264127080373465,-5.473578710359335
1746522018463472000,10.70447216796875,5.465190821242333,1.022743211081624,-4.684565052436292
1746522018473460200,10.714460205078124,6.513743596363067,0.9570499649435281,-4.586047395060956
1746522018483449300,10.724449462890625,6.525852551829814,0.9366402141213417,-4.812504911389946
1746522018493437200,10.734437255859374,5.299399370539188,0.8401457331366836,-4.97971441219747
1746522018503426300,10.74442626953125,3.138657506689429,0.207665575966984,-5.159978624889254
1746522018513415400,10.75441552734375,0.814244837552309,-0.7980518276423215,-5.297312627393007
1746522018523403300,10.7644033203125,-1.316630880343914,-1.7905438389755783,-5.119338571465015
1746522018533392100,10.77439208984375,-3.8611055195540187,-2.564187055417895,-4.329623487274349
1746522018543381200,10.78438134765625,-7.305083359146118,-2.534882635000348,-2.713383637411892
1746522018553369300,10.794369384765625,-11.146470032751559,-2.0133713282391428,-1.037583052816987
1746522018563358200,10.804358154296875,-14.603870248496532,-1.0782118541948498,0.14238850941434503
1746522018573347300,10.814347412109376,-16.54318411461711,0.545512360073626,1.297423198787868
1746522018583335200,10.824335205078125,-16.81733774036169,1.5047216950081288,1.7781303476043044
1746522018593324300,10.83432421875,-15.772136613756418,1.3515838280424475,1.6832377488583325
1746522018603313200,10.844313232421875,-13.64774324361682,1.0386877991884946,1.569266209502518
1746522018613301200,10.85430126953125,-11.019156489002704,0.7298899994336068,1.2942005834795534
1746522018623290400,10.864290283203125,-8.233580014300346,0.3357274538651109,0.8442784490272403
1746522018633279200,10.874279296875,-5.539774645322561,0.06738295279070734,0.366439622188732
1746522018643267000,10.88426708984375,-2.9565140561223027,-0.014198767352849244,0.2910166073380038
1746522018653256200,10.894256103515625,-0.738863141092658,0.10834683134183287,0.5966065144296735
1746522018663245300,10.904245361328124,1.1869114444971083,0.2800990901455283,1.3769075082607567
1746522018673233200,10.914233154296875,3.115404641395807,0.48915071364343166,2.757458049198985
1746522018683221800,10.9242216796875,5.156397843793035,0.7454974645406007,4.503665464450418
1746522018693211000,10.9342109375,7.223178398397565,0.9744999891772865,6.119426883146167
1746522018703198700,10.94419873046875,9.114646225237847,1.191056581477821,7.480579042261838
1746522018713187600,10.9541875,10.693249295145273,1.6120535040885209,8.023844207930564
1746522018723176700,10.9641767578125,11.824501396262646,2.43451350453943,7.563710914456844
1746522018733164800,10.974164794921874,12.313636327815056,3.2480782508730885,6.61857116753757
1746522018743154000,10.98415380859375,12.08714110982418,3.8696401236653326,5.605545632871985
1746522018753142800,10.994142822265625,11.148927362775803,4.332304104660452,4.556746189513802
1746522018763130600,11.004130615234375,9.661036244928836,4.694991461643577,3.792980370093882
1746522018773119700,11.01411962890625,7.741811811634897,5.0660652464389795,3.5539264070421455
1746522018783108600,11.024108642578126,5.798394017326832,5.3451680190235376,3.4917043441459534
1746522018793096700,11.0340966796875,4.273274115803837,5.430034167665243,3.420827557890117
1746522018803085800,11.0440859375,3.447475034058094,5.581708830210566,3.4997254457771776
1746522018813075000,11.054074951171875,2.9407419019728898,6.1109752811431886,3.351197556824982
1746522018823062800,11.064062744140625,2.2587018873423337,6.657619567856192,2.7856992242991923
1746522018833051600,11.0740517578125,1.424396258535981,6.506897675991058,2.408987433616817
1746522018843040800,11.084040771484375,-0.03416179732084274,5.681426511025428,2.9269451395496726
1746522018853028900,11.09402880859375,-2.0104080945193767,4.025535326515138,3.546493626692891
1746522018863017700,11.104017822265625,-3.1619752539128063,1.8402061338976023,3.3599656774312257
1746522018873006800,11.1140068359375,-2.5636416964948174,-0.054228433793783185,2.3531124016597866
1746522018882994700,11.12399462890625,-1.2998615318506956,-1.4779305725857614,1.1594831201497464
1746522018892983600,11.133983642578125,-1.5357815807908772,-2.3672449719086286,0.24193244109749792
1746522018902972700,11.14397265625,-3.6289947997689245,-1.7999048109084366,0.4059046404842287
1746522018912960800,11.153960693359375,-6.719736709073185,-0.0723350222401321,1.3694481321655212
1746522018922950000,11.163949951171874,-10.244821637034416,1.1134238912209868,0.6814435831073671
1746522018932937700,11.173937744140625,-13.229243106257915,1.1051051218174397,-1.2891327786959708
1746522018942926600,11.183926513671874,-14.750786318337916,0.0889173237286508,-2.1126237296298145
1746522018952915700,11.193915771484376,-14.258413135516642,-1.1194150944598018,-1.0079701509721577
1746522018962903800,11.20390380859375,-12.354763287973404,-2.0677781873397527,-0.06029880321603268
1746522018972892700,11.213892578125,-9.844234757506847,-2.762348159328103,-0.19112945170775056
1746522018982881800,11.2238818359375,-7.178653027972579,-3.008540011435747,-0.5189066041555256
1746522018992869600,11.23386962890625,-4.521251097762584,-2.890895044264197,-0.5594171859811992
1746522019002858800,11.243858642578125,-2.023850344416499,-2.7627409580379725,-0.3814000215638429
1746522019012847600,11.25384765625,0.135337860250473,-2.68014392337203,-0.49724312694519757
1746522019022835700,11.263835693359376,1.8180699976742267,-2.603226103386283,-0.9423108071036637
1746522019032824800,11.273824951171875,3.130949416530132,-2.5915143305435775,-1.573142612544447
1746522019042813700,11.283813720703124,4.250574792739749,-2.6014696151077747,-2.255759696410596
1746522019052801500,11.293801513671875,5.280186720547079,-2.599939921322465,-3.036127106541395
1746522019062790700,11.303790771484374,6.001753274402022,-2.5473726987391707,-3.9274496308162807
1746522019072779800,11.31377978515625,6.047981357091665,-2.407136106661707,-4.413307148133218
1746522019082767600,11.323767578125,5.279494646629691,-1.9439270590044557,-4.0838858086749905
1746522019092756700,11.3337568359375,4.26442971509099,-0.9852712662994861,-3.006372604268789
1746522019102745900,11.343745849609375,3.7243975399941203,-0.10603300144150853,-2.022533416599035
1746522019112734000,11.35373388671875,4.367952048885822,0.6449566307745873,-1.5277408976763487
1746522019122722600,11.36372265625,5.851376834973693,1.4675054785527288,-1.6543318262390792
1746522019132711700,11.373711669921875,7.65751031113863,2.0396597618363796,-2.61722803299278
1746522019142699800,11.38369970703125,9.61936334132552,2.2737246844291685,-4.203013123358786
1746522019152688600,11.393688720703125,10.92820839009881,2.3827251573741433,-5.600032422408462
1746522019162677800,11.403677734375,10.548202526307106,2.5124770341858267,-6.581709463608265
1746522019172665900,11.413665771484375,8.06322227859497,2.552642748096585,-7.330394910535216
1746522019182654700,11.42365478515625,3.6726433873593805,2.3917374619998037,-7.377941090086102
1746522019192643600,11.4336435546875,-2.3076883288294074,1.8462693794593215,-6.072937519171834
1746522019202631700,11.443631591796875,-8.427750587269664,0.6393520887658,-4.094313679187
1746522019212620800,11.453620849609376,-12.451519196373223,-1.2106252053007482,-1.6094101499728857
1746522019222609000,11.46360888671875,-12.464251252174376,-3.257377994138002,-0.6819149269461632
1746522019232597800,11.47359765625,-9.605552258116006,-4.596403661641478,-2.3395715136937794
1746522019242586600,11.483586669921875,-7.502177710607647,-4.888005558054149,-5.151764338773488
1746522019252574700,11.49357470703125,-8.655829859581589,-3.918707813695073,-7.044356201207638
1746522019262563600,11.5035634765625,-12.383365113079547,-1.8572462621562182,-7.354386611497402
1746522019272552700,11.513552734375,-15.74394979919195,0.18212986043319104,-6.469995640051365
1746522019282540800,11.523540771484376,-17.223063736343384,0.6715836486764252,-5.664677036276459
1746522019292530000,11.533530029296875,-16.51729564012289,0.43700025516748425,-5.431968935120105
1746522019302518800,11.543518798828124,-13.318525317776203,0.30142288707271214,-5.217498501443862
1746522019312506600,11.553506591796875,-8.348335105249285,0.13589154861047864,-4.837966392643749
1746522019322495700,11.563495849609374,-3.358459949043393,0.5987520750910044,-3.97049557633847
1746522019332484600,11.573484619140626,0.8543184892654418,1.3833593147486447,-2.031826730123162
1746522019342472700,11.58347265625,4.042768493127823,2.1895210913494227,1.345779233416915
1746522019352461800,11.5934619140625,6.303737156358361,2.3560449479803443,4.484364551652968
1746522019362451000,11.603450927734375,7.671145453259348,2.5251141051799055,6.689408790826797
1746522019372438800,11.613438720703124,7.9760987064152955,2.8172113838940858,8.922110559993982
1746522019382427600,11.623427734375,7.4009402728796,2.715836291261017,10.49035824010372
1746522019392416800,11.633416748046875,6.888537862986325,2.5997967134594915,10.304451053088902
1746522019402404900,11.64340478515625,6.792937554362416,2.96966755220592,9.423768288511038
1746522019412393700,11.653393798828125,7.039065693584084,3.4060181112930175,8.54256705301702
1746522019422382800,11.6633828125,7.520948462051153,3.789119895273447,7.901952689230441
1746522019432370700,11.67337060546875,8.1171759871006,4.248858928732574,7.5829709107220165
1746522019442359800,11.68335986328125,8.579784730777144,4.745617779292166,7.393292388474941
1746522019452347600,11.69334765625,8.310626429101823,5.35064557365179,7.247132689958811
1746522019462336800,11.703336669921875,7.431618319737911,5.849730236810445,7.455225989818572
1746522019472326000,11.713325927734376,6.261502527219057,5.965459725749493,7.676676783901453
1746522019482313700,11.723313720703125,5.175329338756203,6.104691670829057,7.864232907167077
1746522019492302600,11.733302490234376,4.398967949396371,6.189112998312711,8.205683707115053
1746522019502291700,11.743291748046875,3.8103158280372615,5.9273640961110585,8.033278391230105
1746522019512279800,11.75327978515625,3.208644066107273,5.452637044617533,7.205691257023811
1746522019522268700,11.7632685546875,2.1459897003978488,4.8729687324419615,6.088714349496364
1746522019532257800,11.7732578125,0.3937877209067344,3.843719208206236,4.96559645499587
1746522019542245600,11.78324560546875,-1.0408265647828578,2.451565761627257,3.7907372673422097
1746522019552234800,11.79323486328125,-1.4474094698548317,1.540798824431002,3.0280934376895425
1746522019562223600,11.8032236328125,-0.8338041090250015,0.9700234282851219,2.36837105332911
1746522019572211700,11.813211669921875,0.5006827460050582,-0.00629851562231779,1.2263025207735598
1746522019582200800,11.823200927734375,2.1757699216336013,-1.204113339188695,0.6669521164182574
1746522019592189700,11.833189697265626,2.3543191471010445,-2.0571023334160445,0.9940196592919528
1746522019602177500,11.843177490234375,0.2853822912454605,-2.028904997457564,1.6937202721670268
1746522019612166700,11.853166748046876,-3.535575926837325,-1.4264263030588626,2.147589244548976
1746522019622155800,11.86315576171875,-8.052734786850214,-0.8315721121892332,1.851285892447084
1746522019632143600,11.8731435546875,-12.359234880429506,0.11550313283726572,1.3433056829102337
1746522019642132700,11.8831328125,-15.693905373084544,0.8670238031901418,0.3371686656493693
1746522019652120800,11.893120849609375,-17.44744766126871,0.9507350096430629,-1.778540243579447
1746522019662109700,11.903109619140626,-17.14642122616768,0.47826501636132596,-4.12714481242597
1746522019672098600,11.9130986328125,-15.33913098118305,-0.2730385041095316,-5.842586210274696
1746522019682087700,11.923087646484374,-13.386280757141112,-0.9030642538644373,-6.797884947636723
1746522019692076800,11.933076904296875,-11.196509782683849,-1.0216219519667327,-6.705664344578981
1746522019702065700,11.943065673828125,-8.818029423272609,-1.0789137188538909,-5.921386775267123
1746522019712053500,11.953053466796876,-6.4874202375829215,-1.2774886642619967,-4.979199448412657
1746522019722042600,11.963042724609375,-3.814786251449585,-0.9032673752211033,-2.970297959063947
1746522019732031500,11.973031494140624,-0.9960159476757049,-0.8111766090881078,-1.394828803268075
1746522019742019600,11.98301953125,1.6614058562785385,-0.6971979093391448,-0.6072650884250178
1746522019752008700,11.9930087890625,3.995835477039218,-0.29272286326661706,-0.640939065696299
1746522019761997800,12.002997802734376,5.867623620897531,0.08406849545799196,-1.8927298096001146
1746522019771985400,12.0129853515625,7.351810039007663,0.41633053823485966,-3.7480306367769836
1746522019781974500,12.022974609375,8.465643972334265,0.6473306664295494,-5.148526087504625
1746522019791962600,12.032962646484375,9.104731564944982,0.4772486789256334,-5.906522383612394
1746522019801951700,12.04295166015625,9.44964799517691,-0.007558598686009645,-5.828101173326373
1746522019811940600,12.052940673828125,9.700888362845777,-0.5284234242372214,-4.899288291829824
1746522019821928400,12.062928466796874,9.773307702368497,-0.8910711798623203,-3.2165582002326842
1746522019831917600,12.07291748046875,9.844870717322825,-1.1486436731621623,-1.7774331591203807
1746522019841906400,12.082906494140625,9.743438633805512,-1.1233106405936182,-1.8471945314802227
1746522019851894500,12.09289453125,9.259765474790335,-0.567097146024555,-2.9045389542132614
1746522019861883600,12.102883544921875,8.379872399285436,0.17144743063822387,-3.934607393616438
1746522019871872800,12.112872802734374,7.063183651274442,0.9571241992235183,-4.694950545111299
1746522019881860600,12.122860595703125,5.82946778550446,1.429040284949541,-5.828933532497286
1746522019891849500,12.132849365234375,5.320588873562216,1.5043275811240076,-6.796750975170731
1746522019901838600,12.142838623046876,5.196976522418856,0.9809779530197381,-7.537967985913157
1746522019911826700,12.15282666015625,4.212679654109477,-0.7000406584843992,-8.208210595244168
1746522019921815600,12.162815673828124,2.2123118920892475,-2.896009610798955,-8.952207007572055
1746522019931804700,12.1728046875,-0.5213169532328844,-3.913851313574612,-8.118247415724396
1746522019941792500,12.18279248046875,-5.1503112173557275,-3.5979026191517707,-5.486636344853043
1746522019951781600,12.19278173828125,-11.521394063234329,-2.634698223231733,-3.3944442856162786
1746522019961769500,12.20276953125,-17.764784595179556,-0.7859586542665958,-2.443277679622918
1746522019971758600,12.212758544921876,-22.05328842881918,1.3341475400730967,-1.147072624453157
1746522019981747700,12.222747802734375,-23.458930302524564,3.3240023836463686,0.869930192156136
1746522019991735800,12.23273583984375,-22.48465623105764,3.5686057975187895,1.7884812073573468
1746522020001724700,12.242724609375,-19.538759430539606,2.6564646493598816,1.8920900503918527
1746522020011713500,12.252713623046875,-15.869577581810951,2.1327558325544,1.4103984205827116
1746522020021701600,12.26270166015625,-12.475392239391804,1.6022317827761172,0.4377612661352381
1746522020031690500,12.2726904296875,-9.4706866915524,1.3202119537010788,-0.34118539047744123
1746522020041679600,12.2826796875,-6.90950992386639,1.619964715604484,-0.3532042199753225
1746522020051667700,12.292667724609375,-4.604294707152247,1.8941794238865375,0.18765867032464592
1746522020061656800,12.30265673828125,-2.1213667157948017,2.2137746581181883,1.4290563593015073
1746522020071644700,12.312644775390625,0.347036491125822,2.7716499484196304,3.301216843603551
1746522020081633500,12.322633544921874,2.620602185600996,3.0517940467506643,4.856692135901749
1746522020091622700,12.33262255859375,4.657994148635864,3.0775057033732534,5.712903014785051
1746522020101610800,12.34261083984375,6.500268028718232,3.1295909876585006,6.3256187332987786
1746522020111599600,12.352599609375,8.150752093487977,3.3422780450493095,6.74427201539278
1746522020121588700,12.362588623046875,9.570320201215148,3.4587311720877882,6.8826429597288366
1746522020131576600,12.37257666015625,10.734065289658307,3.675915248636901,6.584846008068323
1746522020141565400,12.3825654296875,11.358190875458718,4.060155973519385,6.207675075441599
1746522020151554600,12.392554443359375,11.500679776507615,4.3556671523302795,5.845347491681576
1746522020161542700,12.402542724609376,11.371708528679608,4.229770781902968,5.850469072479009
1746522020171531800,12.41253173828125,11.199018550634383,4.069712029632925,6.417442445993423
1746522020181520600,12.422520751953124,10.882724403774738,4.0249133952245115,6.992628352057934
1746522020191508500,12.432508544921875,10.169117869013547,4.077428887620568,7.189036474820971
1746522020201497600,12.44249755859375,9.070873134484886,4.226681583715975,7.0391469421267505
1746522020211485700,12.452485595703125,8.116887817808985,4.526627822364866,6.587623656088113
1746522020221474600,12.462474609375,7.313116443476081,4.958585699450969,6.051707099616527
1746522020231463700,12.472463623046876,6.285578399333358,5.409193039688468,5.383415624353289
1746522020241451500,12.482451416015625,4.682676754471659,5.543024587029218,4.735334577947855
1746522020251440600,12.492440673828124,3.0144957049697636,5.072971372565627,4.476464446052908
1746522020261429500,12.502429443359375,1.8175345756232737,4.035119147418439,4.3668923106998205
1746522020271417600,12.51241748046875,1.2943395535588265,2.6307012625500557,4.2180023104369635
1746522020281406700,12.52240673828125,1.2048118428468704,1.4826225297942757,4.60086794757396
1746522020291395600,12.5323955078125,0.8384434592634439,-0.0012213584885001183,4.976755562391877
1746522020301383400,12.542383544921876,-0.6928069078385829,-1.972661424449086,4.526691242989897
1746522020311372500,12.55237255859375,-3.989991427186131,-2.9763945223733783,3.801014915728569
1746522020321360600,12.562360595703124,-8.342949905079603,-2.6115987949341535,3.543373741106689
1746522020331349500,12.572349609375,-11.924825226277113,-1.4294319146156311,3.7985441417008636
1746522020341338600,12.582338623046875,-13.656388322365283,0.04843669864982366,3.8103804177060723
1746522020351326700,12.59232666015625,-14.015885651135443,0.5854986257642507,2.352605621181428
1746522020361315600,12.602315673828125,-14.386453824496268,0.5270055202633143,0.17602306799069045
1746522020371304400,12.612304443359376,-14.523878427892923,0.544951949711889,-0.8574255153700708
1746522020381292500,12.62229248046875,-14.012787685120104,-0.09122107062637805,-1.096419857189059
1746522020391281700,12.63228173828125,-12.617933747410774,-0.8498042267113923,-1.114645980361849
1746522020401270500,12.6422705078125,-10.323135879814624,-1.0410083510905503,-1.039230673893541
1746522020411258600,12.652258544921875,-7.904642074444889,-1.178773876879364,-1.1963527881897986
1746522020421247700,12.662247802734376,-5.588271257466078,-1.3936140206508338,-1.6298903356827794
1746522020431236600,12.672236572265625,-3.2790017969250678,-1.5457164070889353,-1.9492790875568984
1746522020441224400,12.682224365234376,-1.0172475362747908,-1.6134395516194402,-2.160249696418643
1746522020451213600,12.692213623046875,1.1189239499419927,-1.5979302861899136,-2.3404143942587075
1746522020461201700,12.70220166015625,3.139261317801475,-1.7358815438091755,-2.435072599726915
1746522020471190800,12.712190673828125,5.096362185025215,-1.793141600383818,-2.390316343155503
1746522020481179600,12.7221796875,6.950335270729661,-1.861750587838143,-2.4047407359577715
1746522020491167500,12.73216748046875,8.628436825743318,-2.1270799788750705,-2.4945468252196905
