time,seconds_elapsed,z,y,x
1746522007785535700,0.02653564453125,0.06288263201713562,-0.8427685499191284,-0.005533735267817974
1746522007795523800,0.03652392578125,0.116062231361866,-1.117266058921814,0.03479211777448654
1746522007805512700,0.0465126953125,0.07708864659070969,-1.4164663553237915,-0.002777363173663616
1746522007815501600,0.05650146484375,-0.018726296722888947,-1.7650011777877808,-0.09556775540113449
1746522007825490700,0.06649072265625,-0.07201553881168365,-2.127392530441284,-0.21721988916397095
1746522007835478800,0.076478759765625,-0.14715290069580078,-2.4715168476104736,-0.32548192143440247
1746522007845468000,0.086468017578125,-0.19421404600143433,-2.6380083560943604,-0.4173718988895416
1746522007855456800,0.096456787109375,-0.3199445605278015,-2.8805203437805176,-0.4221442639827728
1746522007865446000,0.10644580078125,-0.34714531898498535,-2.886796474456787,-0.4525549113750458
1746522007875433700,0.116433837890625,-0.2279725819826126,-2.3126797676086426,-0.41406211256980896
1746522007885422600,0.126422607421875,-0.04946422576904297,-1.9748904705047607,-0.2932097315788269
1746522007895411700,0.13641162109375,0.20150594413280487,-1.571622371673584,-0.17720161378383636
1746522007905400800,0.14640087890625,0.5314540863037109,-1.0020794868469238,-0.15912435948848724
1746522007915389000,0.156388916015625,0.8799636363983154,-0.1703246831893921,-0.28438881039619446
1746522007925377800,0.166377685546875,0.9969087243080139,1.2619293928146362,-0.504343569278717
1746522007935367000,0.176366943359375,1.1593908071517944,2.2423901557922363,-0.8754239082336426
1746522007945355800,0.186355712890625,1.3258081674575806,2.79714035987854,-1.2350537776947021
1746522007955343600,0.196343505859375,1.4729433059692383,2.9994325637817383,-1.541626214981079
1746522007965332700,0.206332763671875,1.5191612243652344,2.820661783218384,-1.8114516735076904
1746522007975321900,0.21632177734375,1.2843321561813354,2.5304410457611084,-1.844361662864685
1746522007985310700,0.226310791015625,0.9702507257461548,2.044768810272217,-1.7524983882904053
1746522007995298800,0.236298828125,0.7323638796806335,1.2504973411560059,-1.737194299697876
1746522008005288000,0.246287841796875,0.5449966788291931,0.38315632939338684,-1.7860320806503296
1746522008015276500,0.256276611328125,0.39093148708343506,-0.3574487864971161,-1.872969150543213
1746522008025264600,0.2662646484375,0.27870550751686096,-0.8189504146575928,-1.9458388090133667
1746522008035253800,0.276253662109375,0.18561574816703796,-0.8182305693626404,-1.975866436958313
1746522008045243000,0.286242919921875,0.15045243501663208,-0.46678584814071655,-1.9752837419509888
1746522008055231700,0.296231689453125,0.11954537779092789,0.15306834876537323,-1.881473183631897
1746522008065219800,0.3062197265625,0.05767292529344559,0.9589592218399048,-1.68207585811615
1746522008075208700,0.316208740234375,-0.01855287328362465,1.818039894104004,-1.4194951057434082
1746522008085197600,0.326197509765625,-0.0788826197385788,2.579282283782959,-1.1228035688400269
1746522008095186700,0.336186767578125,-0.08855335414409637,3.120652437210083,-0.8134510517120361
1746522008105174800,0.3461748046875,-0.023512836545705795,2.9245760440826416,-0.5447133183479309
1746522008115164000,0.356163818359375,0.07383954524993896,2.133850574493408,-0.2644771635532379
1746522008125152800,0.36615283203125,0.16063883900642395,1.336113691329956,0.050095971673727036
1746522008135142000,0.376141845703125,0.18544672429561615,0.48503559827804565,0.42121678590774536
1746522008145129700,0.386129638671875,0.15345782041549683,-0.02634548395872116,0.7861819863319397
1746522008155118600,0.39611865234375,0.0788983702659607,-0.08340930193662643,1.1213467121124268
1746522008165107700,0.406107666015625,-0.016410162672400475,0.044814035296440125,1.4263044595718384
1746522008175096800,0.416096923828125,-0.0778447613120079,0.2177349478006363,1.6848191022872925
1746522008185085000,0.4260849609375,-0.06563901156187057,0.5091264247894287,1.8589296340942383
1746522008195073800,0.43607373046875,0.05414171516895294,1.1114269495010376,1.792807936668396
1746522008205063000,0.44606298828125,0.24502870440483093,1.7642102241516113,1.4944223165512085
1746522008215051800,0.4560517578125,0.4322523772716522,1.953731894493103,1.2105783224105835
1746522008225039600,0.46603955078125,0.5789812803268433,1.7092649936676025,1.0204120874404907
1746522008235028700,0.47602880859375,0.6152012944221497,1.2053086757659912,0.8403839468955994
1746522008245017900,0.486017822265625,0.5558023452758789,0.5468407273292542,0.6084271669387817
1746522008255006000,0.496005859375,0.4695957899093628,-0.10167305916547775,0.2942066490650177
1746522008264994800,0.505994873046875,0.36938393115997314,-0.5731369256973267,-0.07971367985010147
1746522008274984000,0.51598388671875,0.24154075980186462,-0.8608040809631348,-0.429752916097641
1746522008284972500,0.52597265625,0.036003947257995605,-1.0412325859069824,-0.6362581849098206
1746522008294960600,0.535960693359375,-0.18260003626346588,-1.0689520835876465,-0.659163773059845
1746522008304949800,0.54594970703125,-0.3874470591545105,-0.7861842513084412,-0.5206223726272583
1746522008314939000,0.55593896484375,-0.5487816333770752,-0.2541717290878296,-0.238944873213768
1746522008324927700,0.565927734375,-0.6577968001365662,0.3277280926704407,0.19650113582611084
1746522008334915800,0.575915771484375,-0.6918913722038269,0.7598028182983398,0.7336186170578003
1746522008344904700,0.58590478515625,-0.68510901927948,0.964002788066864,1.2787221670150757
1746522008354893600,0.5958935546875,-0.6436947584152222,0.8706294298171997,1.7716158628463745
1746522008364882700,0.605882568359375,-0.582726001739502,0.6158149242401123,2.1236376762390137
1746522008374870800,0.615870849609375,-0.5141053795814514,0.4901883006095886,2.2080788612365723
1746522008384860000,0.62585986328125,-0.4261789619922638,0.4652726948261261,1.937830924987793
1746522008394848800,0.635848876953125,-0.30257394909858704,0.25606539845466614,1.3818438053131104
1746522008404838000,0.645837890625,-0.12585869431495667,0.007612854242324829,0.8427680134773254
1746522008414825700,0.65582568359375,-0.011401883326470852,-0.35056501626968384,0.36602839827537537
1746522008424814600,0.665814697265625,0.009581105783581734,-0.6162149310112,-0.029151175171136856
1746522008434803700,0.6758037109375,-0.023920396342873573,-0.6785736680030823,-0.3363247215747833
1746522008444792800,0.685792724609375,-0.1296154260635376,-0.5399066209793091,-0.5412613749504089
1746522008454781000,0.695781005859375,-0.3545393645763397,-0.4071893095970154,-0.5484995245933533
1746522008464769800,0.705769775390625,-0.5836204290390015,-0.35332009196281433,-0.42588868737220764
1746522008474759000,0.715759033203125,-0.6998061537742615,-0.3454323410987854,-0.28144919872283936
1746522008484747800,0.725747802734375,-0.7459295988082886,-0.2884271740913391,-0.1227373257279396
1746522008494735600,0.735735595703125,-0.7893761992454529,-0.1482311636209488,0.06218006834387779
1746522008504724700,0.745724853515625,-0.7563007473945618,0.09017574042081833,0.2162569910287857
1746522008514713900,0.7557138671875,-0.6775606870651245,0.3142938017845154,0.3296929895877838
1746522008524702000,0.765701904296875,-0.6481620073318481,0.4950587749481201,0.46395546197891235
1746522008534690800,0.77569091796875,-0.6692627668380737,0.6042686700820923,0.6233802437782288
1746522008544680000,0.785679931640625,-0.7029521465301514,0.4182654321193695,0.7523568868637085
1746522008554668500,0.79566845703125,-0.736745297908783,-0.008707177825272083,0.7387753129005432
1746522008564656600,0.80565673828125,-0.7888800501823425,-0.3592135012149811,0.5050877332687378
1746522008574645800,0.815645751953125,-0.8596341013908386,-0.5890213847160339,0.1492001861333847
1746522008584635000,0.825634765625,-0.89455246925354,-0.8105068802833557,-0.19220294058322906
1746522008594623700,0.835623779296875,-0.9271516799926758,-1.1570550203323364,-0.4246492385864258
1746522008604611800,0.84561181640625,-0.9560725092887878,-1.512479305267334,-0.5661219358444214
1746522008614600700,0.8556005859375,-0.9713950157165527,-1.7211265563964844,-0.6305590271949768
1746522008624589600,0.865589599609375,-0.925045371055603,-1.6900728940963745,-0.5876203179359436
1746522008634578700,0.87557861328125,-0.750137984752655,-1.327799916267395,-0.43496766686439514
1746522008644566800,0.88556689453125,-0.3829886317253113,-0.791840136051178,-0.2355370968580246
1746522008654556000,0.895555908203125,0.030164066702127457,-0.2527116537094116,0.017175845801830292
1746522008664544800,0.905544677734375,0.3821411728858948,0.05259908735752106,0.3755289316177368
1746522008674532900,0.915532958984375,0.6014963984489441,0.08188773691654205,0.8712190985679626
1746522008684522000,0.92552197265625,0.7969446182250977,0.12693171203136444,1.3847503662109375
1746522008694510800,0.9355107421875,1.0226094722747803,0.31843802332878113,1.8162062168121338
1746522008704500000,0.9455,1.1053425073623657,0.3390962481498718,2.183443546295166
1746522008714487800,0.95548779296875,1.052357792854309,0.17371955513954163,2.323826313018799
1746522008724477000,0.965476806640625,0.8245453238487244,-0.05846802890300751,2.2070565223693848
1746522008734465800,0.9754658203125,0.645998477935791,-0.031137870624661446,1.7488958835601807
1746522008744455000,0.985454833984375,0.589585542678833,0.2678115963935852,1.0133848190307617
1746522008754443000,0.995443115234375,0.6316069960594177,0.6057869791984558,0.33575648069381714
1746522008764432000,1.005431884765625,0.6621297597885132,0.8173834085464478,-0.03202712535858154
1746522008774421000,1.0154208984375,0.7343805432319641,0.9884598255157471,-0.13988088071346283
1746522008784410000,1.02541015625,0.9381332397460938,1.1716375350952148,-0.08856736123561859
1746522008794398000,1.03539794921875,1.1879371404647827,1.2259279489517212,-0.030634820461273193
1746522008804386800,1.04538671875,1.3445379734039307,1.10589599609375,-0.13409464061260223
1746522008814376000,1.0553759765625,1.3664246797561646,0.8994631767272949,-0.4356590211391449
1746522008824364800,1.06536474609375,1.2843409776687622,0.620049774646759,-0.8232933282852173
1746522008834353000,1.075352783203125,1.1466926336288452,0.3133918046951294,-1.160305380821228
1746522008844342000,1.085342041015625,0.9794692993164062,0.11463262885808945,-1.3490920066833496
1746522008854331000,1.095330810546875,0.8061526417732239,0.02709851786494255,-1.3620667457580566
1746522008864319700,1.10531982421875,0.6781600713729858,0.131246417760849,-1.2370169162750244
1746522008874307800,1.115307861328125,0.6282625198364258,0.3473094701766968,-0.9966470003128052
1746522008884297000,1.125296875,0.6277392506599426,0.5805936455726624,-0.6546289324760437
1746522008894285800,1.135285888671875,0.6328919529914856,0.8160312175750732,-0.24502170085906982
1746522008904275000,1.14527490234375,0.6070632338523865,1.0309401750564575,0.16013085842132568
1746522008914263000,1.155262939453125,0.552778959274292,1.1831114292144775,0.5282867550849915
1746522008924252000,1.165251953125,0.5105428695678711,1.282670021057129,0.8531714081764221
1746522008934240800,1.17524072265625,0.5150523781776428,1.3568835258483887,1.103548526763916
1746522008944230000,1.18522998046875,0.5656073093414307,1.374638319015503,1.2160170078277588
1746522008954218000,1.195218017578125,0.6424722075462341,1.3477140665054321,1.1308709383010864
1746522008964206800,1.205206787109375,0.7180078625679016,1.2660447359085083,0.8642061948776245
1746522008974196000,1.215196044921875,0.7854667901992798,1.1520729064941406,0.51187664270401
1746522008984185000,1.22518505859375,0.9179797768592834,1.063877820968628,0.14360859990119934
1746522008994173000,1.2351728515625,0.837833046913147,0.7901427149772644,-0.09783543646335602
1746522009004161800,1.245161865234375,0.5924068093299866,0.5026273727416992,-0.22999534010887146
1746522009014151000,1.25515087890625,0.3596944212913513,0.39658668637275696,-0.2789572775363922
1746522009024139000,1.265138916015625,0.1875971406698227,0.37978383898735046,-0.22148121893405914
1746522009034128000,1.2751279296875,0.06259262561798096,0.2919096350669861,-0.03032802790403366
1746522009044117000,1.285116943359375,-0.12203507125377655,-0.01985953561961651,0.34035763144493103
1746522009054106000,1.295106201171875,-0.16301606595516205,-0.3489282429218292,0.7265500426292419
1746522009064094000,1.305093994140625,-0.14561010897159576,-0.713720440864563,1.0083637237548828
1746522009074082800,1.315082763671875,-0.1506410837173462,-1.1284198760986328,1.0947856903076172
1746522009084072000,1.325072021484375,-0.15277324616909027,-1.5284583568572998,0.8902018666267395
1746522009094060800,1.335060791015625,-0.14340531826019287,-1.941697359085083,0.42254915833473206
1746522009104049000,1.345048828125,-0.060899753123521805,-2.3039560317993164,-0.20664820075035095
1746522009114038000,1.3550380859375,-0.09057722240686417,-2.4396133422851562,-0.9768887162208557
1746522009124027100,1.365027099609375,-0.31721818447113037,-2.0835468769073486,-1.7884031534194946
1746522009134015700,1.375015625,-0.6508169770240784,-1.1666501760482788,-2.4437642097473145
1746522009144003800,1.38500390625,-0.8869993090629578,0.06668730080127716,-2.78054141998291
1746522009153993000,1.394992919921875,-1.1274501085281372,0.797931969165802,-2.6368913650512695
1746522009163981800,1.40498193359375,-1.4693758487701416,0.6927087306976318,-2.0787994861602783
1746522009173971000,1.414970947265625,-1.7415187358856201,-0.1587696373462677,-1.3354861736297607
1746522009183959000,1.424958984375,-1.8460044860839844,-1.2259111404418945,-0.7093584537506104
1746522009193948000,1.434947998046875,-1.8640798330307007,-1.9379998445510864,-0.5652146339416504
1746522009203936800,1.444936767578125,-1.8087702989578247,-2.1476364135742188,-0.8587402105331421
1746522009213926000,1.45492578125,-1.6940064430236816,-1.944368839263916,-1.2851953506469727
1746522009223914000,1.4649140625,-1.6085315942764282,-1.573087453842163,-1.5527304410934448
1746522009233902800,1.47490283203125,-1.5379652976989746,-1.2209174633026123,-1.5842856168746948
1746522009243892000,1.48489208984375,-1.490620732307434,-0.7973458766937256,-1.3940558433532715
1746522009253881000,1.494881103515625,-1.4748436212539673,-0.5397244691848755,-1.0440586805343628
1746522009263869000,1.504868896484375,-1.5228896141052246,-0.4721410572528839,-0.5951261520385742
1746522009273857800,1.51485791015625,-1.5781606435775757,-0.38860249519348145,-0.13482968509197235
1746522009283847000,1.524846923828125,-1.560278058052063,-0.25921839475631714,0.2939291298389435
1746522009293835800,1.534835693359375,-1.4587029218673706,-0.242356076836586,0.6590871214866638
1746522009303824000,1.544823974609375,-1.2518870830535889,-0.40849828720092773,0.871637761592865
1746522009313813000,1.55481298828125,-0.9932507872581482,-0.6782850027084351,0.8086467981338501
1746522009323802000,1.564802001953125,-0.6340897083282471,-0.9064251184463501,0.3963010311126709
1746522009333790700,1.574790771484375,-0.22044412791728973,-1.2620534896850586,-0.17226572334766388
1746522009343778800,1.58477880859375,0.16151303052902222,-1.528041958808899,-0.5907160043716431
1746522009353768000,1.594767822265625,0.5390821695327759,-1.3605893850326538,-0.7884889841079712
1746522009363756800,1.6047568359375,0.7659968733787537,-0.9030988812446594,-0.6987220644950867
1746522009373746000,1.614745849609375,0.7080084085464478,-0.2724980413913727,-0.28562185168266296
1746522009383734000,1.624734130859375,0.4876254200935364,0.5023232698440552,0.3737025260925293
1746522009393723100,1.63472314453125,0.32762351632118225,1.209675669670105,1.1693507432937622
1746522009403711700,1.644711669921875,0.32005739212036133,1.6307657957077026,1.916427731513977
1746522009413700900,1.654700927734375,0.3864699602127075,1.8796366453170776,2.4508752822875977
1746522009423689000,1.66468896484375,0.46549782156944275,1.8765835762023926,2.67020583152771
1746522009433677800,1.674677734375,0.5109896659851074,1.658982276916504,2.547813892364502
1746522009443667000,1.6846669921875,0.5280673503875732,1.254628300666809,2.1540582180023193
1746522009453656000,1.694656005859375,0.5506008863449097,0.7073842883110046,1.6948744058609009
1746522009463644000,1.704643798828125,0.6025216579437256,0.15934133529663086,1.315406322479248
1746522009473632800,1.7146328125,0.749608039855957,-0.16176611185073853,0.9931886792182922
1746522009483622000,1.724621826171875,1.0051794052124023,-0.08626865595579147,0.6725369095802307
1746522009493610800,1.73461083984375,1.3384822607040405,0.46038350462913513,0.31081169843673706
1746522009503598800,1.744598876953125,1.6633905172348022,1.474155306816101,-0.123989537358284
1746522009513588000,1.754587890625,1.8273676633834839,2.4854178428649902,-0.553135871887207
1746522009523577000,1.7645771484375,1.7322452068328857,3.169297218322754,-0.8869785070419312
1746522009533565000,1.77456494140625,1.4164196252822876,3.3700170516967773,-1.0141664743423462
1746522009543553800,1.7845537109375,1.0119776725769043,3.160696268081665,-0.932859480381012
1746522009553543000,1.79454296875,0.6404906511306763,2.605544090270996,-0.7057272791862488
1746522009563531800,1.80453173828125,0.36559638381004333,1.8459028005599976,-0.41645416617393494
1746522009573520000,1.814519775390625,0.2263212949037552,1.219138503074646,-0.123893141746521
1746522009583509000,1.824509033203125,0.21863588690757751,0.9232641458511353,0.0930682122707367
1746522009593498000,1.834498046875,0.3096502125263214,0.8425306081771851,0.16195566952228546
1746522009603486700,1.84448681640625,0.4464118778705597,0.939384400844574,0.06716924160718918
1746522009613474800,1.854474853515625,0.6509324908256531,1.1320199966430664,-0.18101127445697784
1746522009623464000,1.8644638671875,0.8144044280052185,1.14449942111969,-0.45568573474884033
1746522009633452800,1.874452880859375,0.9729288220405579,1.025715947151184,-0.7589467763900757
1746522009643442000,1.88444189453125,1.1219948530197144,0.7548921704292297,-1.0798035860061646
1746522009653430000,1.894429931640625,1.2367067337036133,0.3200770914554596,-1.3816262483596802
1746522009663419100,1.904419189453125,1.3192375898361206,-0.22679130733013153,-1.615199327468872
1746522009673407700,1.91440771484375,1.4356316328048706,-0.7527291178703308,-1.7304428815841675
1746522009683396900,1.92439697265625,1.5485444068908691,-1.220381736755371,-1.6776268482208252
1746522009693385000,1.934385009765625,1.6415356397628784,-1.4992362260818481,-1.4642990827560425
1746522009703373600,1.94437353515625,1.664504885673523,-1.4268120527267456,-1.1152756214141846
1746522009713362700,1.95436279296875,1.5691511631011963,-1.0180853605270386,-0.627862274646759
1746522009723351800,1.964351806640625,1.3789376020431519,-0.32104092836380005,-0.11247989535331726
1746522009733340000,1.97433984375,1.142069697380066,0.4852430820465088,0.3570396602153778
1746522009743328800,1.984328857421875,0.8847141265869141,1.2374873161315918,0.8030797243118286
1746522009753318000,1.99431787109375,0.6168028116226196,1.756988525390625,1.2278326749801636
1746522009763306800,2.004306640625,0.38314318656921387,1.9678070545196533,1.5731415748596191
1746522009773294600,2.014294677734375,0.1836412400007248,1.8484724760055542,1.7879101037979126
1746522009783283700,2.02428369140625,0.01740373484790325,1.406170129776001,1.8346866369247437
1746522009793272800,2.03427294921875,-0.07318422198295593,0.8430050015449524,1.679409146308899
1746522009803261700,2.04426171875,-0.18972526490688324,0.06198066473007202,1.387717366218567
1746522009813249800,2.054249755859375,-0.342925488948822,-0.8263518810272217,0.9548333287239075
1746522009823239000,2.064239013671875,-0.42303895950317383,-1.4814718961715698,0.4527243673801422
1746522009833227800,2.074227783203125,-0.5073093175888062,-1.7045884132385254,0.05484359338879585
1746522009843215600,2.084215576171875,-0.702721118927002,-1.6330527067184448,-0.04980425164103508
1746522009853204700,2.094204833984375,-1.0000803470611572,-1.1692777872085571,0.18344445526599884
1746522009863193900,2.10419384765625,-1.25437331199646,-0.3196702003479004,0.6590112447738647
1746522009873182700,2.1141826171875,-1.4551514387130737,0.6085284948348999,1.095531940460205
1746522009883170800,2.1241708984375,-1.6158039569854736,1.3755667209625244,1.1806102991104126
1746522009893160000,2.134159912109375,-1.7431975603103638,1.5455081462860107,0.9252578020095825
1746522009903148500,2.1441484375,-1.8298758268356323,1.0590319633483887,0.4387744963169098
1746522009913137700,2.1541376953125,-1.9059334993362427,0.02110534906387329,-0.05064261332154274
1746522009923125800,2.164125732421875,-1.9566482305526733,-1.2376079559326172,-0.3487424850463867
1746522009933115000,2.174114990234375,-1.8980560302734375,-2.282646656036377,-0.3995726704597473
1746522009943103700,2.184103759765625,-1.7218753099441528,-2.9274516105651855,-0.3101290464401245
1746522009953092900,2.1940927734375,-1.5654462575912476,-3.142819881439209,-0.25659871101379395
1746522009963081000,2.2040810546875,-1.4927421808242798,-3.047680616378784,-0.29594773054122925
1746522009973069600,2.214069580078125,-1.5127830505371094,-2.751288414001465,-0.4239965081214905
1746522009983058700,2.22405859375,-1.5594204664230347,-2.3138723373413086,-0.5714647769927979
1746522009993047800,2.2340478515625,-1.6058508157730103,-1.8209865093231201,-0.6417514681816101
1746522010003036000,2.244035888671875,-1.645756483078003,-1.4267303943634033,-0.6019209623336792
1746522010013024800,2.254024658203125,-1.6559090614318848,-1.2084425687789917,-0.5139104127883911
1746522010023014000,2.264013916015625,-1.6439186334609985,-1.1547759771347046,-0.40611204504966736
1746522010033001700,2.274001708984375,-1.6258642673492432,-1.1752662658691406,-0.3059689402580261
1746522010042990600,2.283990478515625,-1.5959244966506958,-1.1405054330825806,-0.21202485263347626
1746522010052979700,2.293979736328125,-1.5184056758880615,-1.0032609701156616,-0.08583948016166687
1746522010062968800,2.30396875,-1.4213860034942627,-0.7444952726364136,0.07863254845142365
1746522010072957000,2.31395703125,-1.3385944366455078,-0.37281253933906555,0.26244688034057617
1746522010082945800,2.32394580078125,-1.2455962896347046,0.0973927229642868,0.4626750349998474
1746522010092935000,2.333934814453125,-1.1723694801330566,0.47818025946617126,0.6195690035820007
1746522010102923800,2.343923828125,-1.1303099393844604,0.6277897953987122,0.6673903465270996
1746522010112911600,2.35391162109375,-1.07962167263031,0.581407904624939,0.6172757744789124
1746522010122900700,2.363900634765625,-0.9917937517166138,0.37311163544654846,0.5133951902389526
1746522010132889900,2.373889892578125,-0.8802546858787537,0.09080725908279419,0.38375675678253174
1746522010142878700,2.383878662109375,-0.7326725125312805,-0.16789735853672028,0.27849024534225464
1746522010152866800,2.39386669921875,-0.5150770545005798,-0.3350917100906372,0.2784756124019623
1746522010162856000,2.40385595703125,-0.18828870356082916,-0.341640442609787,0.3950190246105194
1746522010172844800,2.4138447265625,0.21757091581821442,-0.10032103955745697,0.5716350674629211
1746522010182832600,2.42383251953125,0.6247002482414246,0.36717379093170166,0.758600652217865
1746522010192821800,2.43382177734375,0.9294545650482178,0.8723472356796265,0.9265284538269043
1746522010202811000,2.443810791015625,1.1118240356445312,1.3289889097213745,1.0678355693817139
1746522010212799700,2.4537998046875,1.2180838584899902,1.7231273651123047,1.2165586948394775
1746522010222787800,2.463787841796875,1.2687523365020752,1.9673380851745605,1.3975402116775513
1746522010232777000,2.47377685546875,1.2551747560501099,2.0085034370422363,1.5640841722488403
1746522010242765600,2.483765625,1.1635087728500366,2.11871600151062,1.4591466188430786
1746522010252754700,2.493754638671875,1.1014776229858398,2.482647657394409,0.8584902286529541
1746522010262742800,2.50374267578125,1.1402207612991333,2.97259783744812,-0.10969235002994537
1746522010272732000,2.51373193359375,1.1366921663284302,3.26414155960083,-1.1763370037078857
1746522010282720800,2.523720703125,1.0737723112106323,3.1336021423339844,-2.085395336151123
1746522010292710000,2.5337099609375,1.0864793062210083,2.595982074737549,-2.681046724319458
1746522010302697700,2.54369775390625,1.2014247179031372,1.8080464601516724,-2.9025015830993652
1746522010312686600,2.5536865234375,1.3453648090362549,1.039096713066101,-2.7769994735717773
1746522010322675700,2.56367578125,1.4262129068374634,0.5103310942649841,-2.374444007873535
1746522010332664800,2.573664794921875,1.4380896091461182,0.22650229930877686,-1.836659550666809
1746522010342652700,2.583652587890625,1.4216830730438232,0.2404053509235382,-1.3142848014831543
1746522010352641800,2.593641845703125,1.384878158569336,0.5039365887641907,-0.9123461842536926
1746522010362631000,2.603630859375,1.3258516788482666,0.8370610475540161,-0.6649036407470703
1746522010372618800,2.61361865234375,1.2700198888778687,1.0655325651168823,-0.6154133677482605
1746522010382607600,2.623607666015625,1.2474390268325806,1.0227550268173218,-0.7914631962776184
1746522010392596700,2.6335966796875,1.2657498121261597,0.7057021856307983,-1.1467695236206055
1746522010402585900,2.6435859375,1.2956417798995972,0.22415950894355774,-1.5805002450942993
1746522010412573700,2.65357373046875,1.2937750816345215,-0.3648640811443329,-1.9746019840240479
1746522010422562800,2.663562744140625,1.274693250656128,-0.9582570791244507,-2.2575323581695557
1746522010432552000,2.673552001953125,1.2145841121673584,-1.50411856174469,-2.3697800636291504
1746522010442540800,2.683540771484375,1.157929539680481,-1.7793667316436768,-2.306373357772827
1746522010452528600,2.693528564453125,1.1333600282669067,-1.8049503564834595,-2.0514628887176514
1746522010462517800,2.703517822265625,1.0904310941696167,-1.6400326490402222,-1.607516884803772
1746522010472507000,2.7135068359375,1.0252119302749634,-1.2813301086425781,-1.0304096937179565
1746522010482495700,2.723495849609375,0.9714454412460327,-0.8023908734321594,-0.3871532678604126
1746522010492483800,2.73348388671875,0.8870008587837219,-0.29534846544265747,0.26295337080955505
1746522010502473000,2.743472900390625,0.7778480052947998,0.1670052856206894,0.8473070859909058
1746522010512461600,2.753461669921875,0.6013757586479187,0.560441792011261,1.3597923517227173
1746522010522450700,2.76345068359375,0.3655860424041748,0.8166812658309937,1.836817741394043
1746522010532438800,2.773438720703125,0.09257661551237106,0.9131689071655273,2.2771661281585693
1746522010542428000,2.783427978515625,-0.17916223406791687,0.8412520289421082,2.6355063915252686
1746522010552416800,2.793416748046875,-0.3889053165912628,0.7194597721099854,2.8486127853393555
1746522010562406000,2.803406005859375,-0.5234925746917725,0.6156216263771057,2.87971568107605
1746522010572393700,2.813393798828125,-0.5937930941581726,0.5202924609184265,2.6788337230682373
1746522010582382600,2.823382568359375,-0.6275700330734253,0.4357061982154846,2.268596887588501
1746522010592371700,2.833371826171875,-0.6407369375228882,0.34190833568573,1.7711385488510132
1746522010602360800,2.84336083984375,-0.6766828894615173,0.010824705474078655,1.3846744298934937
1746522010612348700,2.8533486328125,-0.7291338443756104,-0.46793708205223083,1.1670700311660767
1746522010622337800,2.863337890625,-0.7972348928451538,-0.7998889088630676,1.064369797706604
1746522010632327000,2.873326904296875,-0.9349685311317444,-0.686430811882019,0.9084250330924988
1746522010642315800,2.883315673828125,-1.1248382329940796,-0.1852748692035675,0.5122369527816772
1746522010652303600,2.8933037109375,-1.2784336805343628,0.35212039947509766,-0.1326006054878235
1746522010662292700,2.903292724609375,-1.3519501686096191,0.5149060487747192,-0.760493814945221
1746522010672282000,2.9132822265625,-1.3810627460479736,0.245470330119133,-1.0410168170928955
1746522010682271000,2.92327099609375,-1.3954769372940063,-0.4190371632575989,-0.8609618544578552
1746522010692259000,2.933259033203125,-1.3996049165725708,-1.157898187637329,-0.3486325144767761
1746522010702248200,2.943248291015625,-1.3968297243118286,-1.6229877471923828,0.2669089734554291
1746522010712237000,2.953237060546875,-1.4206631183624268,-1.7893239259719849,0.8150559663772583
1746522010722225200,2.96322509765625,-1.4539982080459595,-1.7451280355453491,1.1307872533798218
1746522010732214300,2.97321435546875,-1.455013394355774,-1.5746878385543823,1.2011079788208008
1746522010742203000,2.983202880859375,-1.4775025844573975,-1.2524495124816895,1.0907095670700073
1746522010752192000,2.99319189453125,-1.5052660703659058,-0.8666526079177856,0.8976738452911377
1746522010762180000,3.00318017578125,-1.4742985963821411,-0.5619735717773438,0.7253924012184143
1746522010772169200,3.013169189453125,-1.4174244403839111,-0.43864765763282776,0.5764404535293579
1746522010782158000,3.023157958984375,-1.375211477279663,-0.49233368039131165,0.43443164229393005
1746522010792147200,3.033147216796875,-1.3570424318313599,-0.6997904777526855,0.28518012166023254
1746522010802135000,3.043135009765625,-1.3383036851882935,-0.9381000995635986,0.09499793499708176
1746522010812124000,3.0531240234375,-1.2947860956192017,-1.1104094982147217,-0.14243830740451813
1746522010822113000,3.063113037109375,-1.23915433883667,-1.2273250818252563,-0.39921098947525024
1746522010832102100,3.07310205078125,-1.168762445449829,-1.3233062028884888,-0.6368283629417419
1746522010842090200,3.08309033203125,-1.0746031999588013,-1.3949579000473022,-0.8164016008377075
1746522010852079000,3.0930791015625,-0.9626458883285522,-1.420772910118103,-0.9198675155639648
1746522010862068200,3.103068115234375,-0.8072252869606018,-1.3992314338684082,-0.9407339096069336
1746522010872057000,3.11305712890625,-0.6066375970840454,-1.3398163318634033,-0.8750163912773132
1746522010882045000,3.123044921875,-0.4030737578868866,-1.234449863433838,-0.7054015398025513
1746522010892034000,3.133033935546875,-0.2038985937833786,-1.0736415386199951,-0.40958693623542786
1746522010902023200,3.143023193359375,0.0004539884102996439,-0.8882334232330322,0.0021329764276742935
1746522010912012000,3.153011962890625,0.2472078502178192,-0.6155866980552673,0.48746052384376526
1746522010922000100,3.163000244140625,0.5252160429954529,-0.14023402333259583,0.9400753974914551
1746522010931989200,3.1729892578125,0.8232325315475464,0.4467730224132538,1.302017092704773
1746522010941978000,3.18297802734375,1.1034382581710815,0.9686669111251831,1.5454341173171997
1746522010951967000,3.192967041015625,1.2820149660110474,1.3256311416625977,1.675527572631836
1746522010961955000,3.202955078125,1.353721022605896,1.4945718050003052,1.7333695888519287
1746522010971944200,3.212944091796875,1.4356701374053955,1.7152293920516968,1.7342000007629395
1746522010981933000,3.22293310546875,1.6943891048431396,2.18951153755188,1.6530907154083252
1746522010991922200,3.232922119140625,2.0832691192626953,2.958245277404785,1.5632178783416748
1746522011001910300,3.24291015625,2.583442449569702,3.8868765830993652,1.659959077835083
1746522011011899000,3.25289892578125,3.0378267765045166,4.6200456619262695,2.037466049194336
1746522011021888000,3.262887939453125,3.2023611068725586,4.804055690765381,2.471101999282837
1746522011031877000,3.272877197265625,3.0153231620788574,4.1925368309021,2.6715142726898193
1746522011041865200,3.282865234375,2.5942556858062744,2.794188976287842,2.360849142074585
1746522011051854000,3.29285400390625,2.043649435043335,1.0740493535995483,1.388506531715393
1746522011061843200,3.30284326171875,1.4938961267471313,-0.3623086214065552,0.011494786478579044
1746522011071832000,3.31283203125,1.0466877222061157,-1.193850040435791,-1.280616044998169
1746522011081820000,3.32281982421875,0.6975865960121155,-1.2361689805984497,-2.126251220703125
1746522011091809000,3.33280908203125,0.37774762511253357,-0.6672919988632202,-2.374006748199463
1746522011101798100,3.342798095703125,0.14156635105609894,0.2273862063884735,-2.0792267322540283
1746522011111787000,3.352787109375,0.14078018069267273,1.2323886156082153,-1.3958954811096191
1746522011121775000,3.362775146484375,0.3313463032245636,2.1870856285095215,-0.5587229132652283
1746522011131764200,3.37276416015625,0.5839604735374451,2.874016046524048,0.18692545592784882
1746522011141753000,3.382753173828125,0.814068615436554,3.1361398696899414,0.700620710849762
1746522011151742200,3.3927421875,0.9465107917785645,2.9895219802856445,0.9865787029266357
1746522011161730000,3.40272998046875,0.9784777760505676,2.571469306945801,1.0742825269699097
1746522011171719200,3.41271923828125,0.9553239941596985,2.027794122695923,1.0037848949432373
1746522011181708000,3.4227080078125,0.9236788153648376,1.475132942199707,0.8341372609138489
1746522011191697200,3.432697265625,0.952792227268219,0.9511837363243103,0.6196222901344299
1746522011201685200,3.442685302734375,1.026813268661499,0.4707990288734436,0.37547698616981506
1746522011211674000,3.452674072265625,1.0831586122512817,0.0004805256612598896,0.12223781645298004
1746522011221663000,3.4626630859375,1.0842208862304688,-0.44214412569999695,-0.10419212281703949
1746522011231652000,3.472652099609375,1.0198181867599487,-0.8158122301101685,-0.2619468867778778
1746522011241640200,3.48264013671875,0.9153267741203308,-1.05868661403656,-0.33897802233695984
1746522011251629000,3.492629150390625,0.7709421515464783,-1.1861876249313354,-0.3366464078426361
1746522011261618200,3.5026181640625,0.6023926734924316,-1.236425757408142,-0.2515448331832886
1746522011271606300,3.512606201171875,0.4653744101524353,-1.225908637046814,-0.1008799597620964
1746522011281595000,3.522594970703125,0.40944844484329224,-1.1378533840179443,0.09064420312643051
1746522011291584000,3.532583984375,0.4180355370044708,-0.9633113741874695,0.292058527469635
1746522011301573000,3.542572998046875,0.41239869594573975,-0.7033686637878418,0.4745340645313263
1746522011311561200,3.552561279296875,0.3369033932685852,-0.45899003744125366,0.6062950491905212
1746522011321550000,3.562550048828125,0.1907883882522583,-0.41585466265678406,0.6587702035903931
1746522011331539200,3.572539306640625,0.00801803544163704,-0.6430630087852478,0.56858891248703
1746522011341528000,3.582528076171875,-0.18659472465515137,-1.2528893947601318,0.2934311330318451
1746522011351516000,3.592515869140625,-0.3821900486946106,-2.276618242263794,-0.14065639674663544
1746522011361505000,3.602505126953125,-0.5985919237136841,-3.405956268310547,-0.6908460259437561
1746522011371494100,3.612494140625,-0.8389323353767395,-3.9321067333221436,-1.429749608039856
1746522011381483000,3.62248291015625,-0.9735608696937561,-3.2607011795043945,-2.2947778701782227
1746522011391471000,3.63247119140625,-0.9375048875808716,-1.4117190837860107,-2.873378276824951
1746522011401460200,3.642460205078125,-0.8243218064308167,0.8070236444473267,-2.8207151889801025
1746522011411449000,3.652448974609375,-0.7472757697105408,2.269294023513794,-2.186208724975586
1746522011421438200,3.662438232421875,-0.7676135897636414,2.5823469161987305,-1.2543479204177856
1746522011431426000,3.672426025390625,-0.9219829440116882,1.6475615501403809,-0.21025463938713074
1746522011441415200,3.682415283203125,-1.235544204711914,0.06817549467086792,0.6685634851455688
1746522011451404000,3.692404052734375,-1.5811296701431274,-1.3658428192138672,1.15232515335083
1746522011461393200,3.70239306640625,-1.855250597000122,-2.156545639038086,1.3045364618301392
1746522011471381200,3.71238134765625,-2.0606212615966797,-2.3069517612457275,1.3026944398880005
1746522011481370000,3.7223701171875,-2.1662776470184326,-1.9167163372039795,1.3271204233169556
1746522011491359000,3.73235888671875,-2.2087907791137695,-1.1197056770324707,1.4373773336410522
1746522011501347000,3.74234716796875,-2.1765267848968506,-0.2775159180164337,1.5859034061431885
1746522011511336200,3.752336181640625,-2.0839791297912598,0.31092336773872375,1.7241939306259155
1746522011521325000,3.762324951171875,-1.9795360565185547,0.5793655514717102,1.7835888862609863
1746522011531314200,3.772314208984375,-1.841675877571106,0.4982438385486603,1.690515398979187
1746522011541302300,3.78230224609375,-1.707998514175415,0.0853288397192955,1.4148155450820923
1746522011551291000,3.792290771484375,-1.6107079982757568,-0.45272448658943176,0.9685707092285156
1746522011561280000,3.802280029296875,-1.467663049697876,-1.0215086936950684,0.4374764859676361
1746522011571269000,3.81226904296875,-1.2764947414398193,-1.5945178270339966,-0.08362027257680893
1746522011581257200,3.82225732421875,-1.0610346794128418,-2.0540771484375,-0.5316465497016907
1746522011591246000,3.83224609375,-0.8204255700111389,-2.3079636096954346,-0.8633789420127869
1746522011601235200,3.842235107421875,-0.580744743347168,-2.3395917415618896,-1.0433491468429565
1746522011611224000,3.85222412109375,-0.38476327061653137,-2.1510627269744873,-1.0458208322525024
1746522011621212000,3.8622119140625,-0.26076507568359375,-1.8301972150802612,-0.8795571327209473
1746522011631201000,3.872200927734375,-0.16937442123889923,-1.4277927875518799,-0.5945839285850525
1746522011641190100,3.882190185546875,-0.07736571133136749,-0.9904959201812744,-0.2198321521282196
1746522011651178200,3.89217822265625,0.04634770750999451,-0.6005963087081909,0.19190771877765656
1746522011661167000,3.9021669921875,0.16082800924777985,-0.2411326915025711,0.5197145938873291
1746522011671156200,3.91215625,0.2290440797805786,-0.047776542603969574,0.6141079664230347
1746522011681144800,3.922144775390625,0.30936720967292786,0.05124255269765854,0.438838392496109
1746522011691132700,3.932132568359375,0.40101590752601624,0.11739307641983032,0.11940714716911316
1746522011701121800,3.942121826171875,0.4738433361053467,0.2277568131685257,-0.17882828414440155
1746522011711111000,3.95211083984375,0.5701544284820557,0.3893909752368927,-0.338530033826828
1746522011721099800,3.962099853515625,0.6766262054443359,0.6396490931510925,-0.32559266686439514
1746522011731087600,3.972087646484375,0.7500439286231995,1.0713621377944946,-0.21198517084121704
1746522011741076700,3.98207666015625,0.7659379243850708,1.5254547595977783,-0.1576976776123047
1746522011751065900,3.99206591796875,0.7965735793113708,1.817700982093811,-0.4096449613571167
1746522011761054700,4.0020546875,0.9041375517845154,1.7370994091033936,-1.0438953638076782
1746522011771042800,4.012042724609375,1.042098045349121,1.1466951370239258,-1.8531831502914429
1746522011781032000,4.022031982421875,1.1875534057617188,0.3568267524242401,-2.53544020652771
1746522011791020800,4.032020751953125,1.30983567237854,-0.31358861923217773,-2.8923611640930176
1746522011801008600,4.042008544921875,1.3076562881469727,-0.5671548247337341,-2.8843889236450195
1746522011810997800,4.051997802734375,1.1710915565490723,-0.33075767755508423,-2.551990509033203
1746522011820986600,4.061986572265625,0.9846826791763306,0.24314115941524506,-1.9783363342285156
1746522011830975700,4.071975830078125,0.8423148989677429,0.9151677489280701,-1.342925786972046
1746522011840963800,4.0819638671875,0.7516286969184875,1.4342631101608276,-0.7797274589538574
1746522011850953000,4.091952880859375,0.7180973887443542,1.6944043636322021,-0.3227428197860718
1746522011860941800,4.10194189453125,0.7338265180587769,1.7052112817764282,-0.010772952809929848
1746522011870930700,4.1119306640625,0.7677759528160095,1.4743852615356445,0.13547028601169586
1746522011880918800,4.121918701171875,0.8129933476448059,0.9901808500289917,0.07162284851074219
1746522011890907600,4.13190771484375,0.8514333963394165,0.3888966143131256,-0.1770269125699997
1746522011900896800,4.141896728515625,0.8320236802101135,-0.19430139660835266,-0.48520392179489136
1746522011910884900,4.151884765625,0.7670739889144897,-0.6548109650611877,-0.7701336741447449
1746522011920874000,4.1618740234375,0.6852494478225708,-0.9493049383163452,-0.9876702427864075
1746522011930862600,4.171862548828125,0.6054853796958923,-1.0579850673675537,-1.0969038009643555
1746522011940851700,4.181851806640625,0.5304626226425171,-0.966442883014679,-1.1013588905334473
1746522011950839800,4.19183984375,0.45866936445236206,-0.6680021286010742,-0.997791588306427
1746522011960828700,4.20182861328125,0.3749220371246338,-0.20393531024456024,-0.781179666519165
1746522011970817800,4.21181787109375,0.24624450504779816,0.3310069441795349,-0.44795534014701843
1746522011980807000,4.221806884765625,0.12454742938280106,0.8479147553443909,-0.016465462744235992
1746522011990794800,4.231794677734375,0.0003863330348394811,1.2258739471435547,0.5263344049453735
1746522012000783600,4.24178369140625,-0.12380661815404892,1.2621811628341675,1.168993592262268
1746522012010772700,4.251772705078125,-0.2125048041343689,1.0839976072311401,1.8173819780349731
1746522012020760800,4.2617607421875,-0.25976958870887756,0.6915053129196167,2.321579694747925
1746522012030749700,4.271749755859375,-0.2457970529794693,0.05830651894211769,2.4862194061279297
1746522012040738800,4.28173876953125,-0.14221327006816864,-0.6585798263549805,2.2761573791503906
1746522012050728000,4.29172802734375,-0.00897051952779293,-1.2306058406829834,1.9420714378356934
1746522012060715800,4.3017158203125,0.0668090283870697,-1.6032129526138306,1.3415467739105225
1746522012070704600,4.31170458984375,0.16477766633033752,-1.821288824081421,0.4658886790275574
1746522012080693800,4.32169384765625,0.14278937876224518,-2.1283488273620605,-0.3929000794887543
1746522012090682600,4.3316826171875,-0.05084133520722389,-2.5689072608947754,-1.0700335502624512
1746522012100670700,4.341670654296875,-0.32592523097991943,-3.0820796489715576,-1.4701329469680786
1746522012110659800,4.351659912109375,-0.630207359790802,-3.4580600261688232,-1.5449632406234741
1746522012120649000,4.36164892578125,-0.8542805314064026,-3.284759998321533,-1.6047749519348145
1746522012130636800,4.37163671875,-0.6626327633857727,-2.1470048427581787,-1.8322798013687134
1746522012140625700,4.381625732421875,-0.1354636251926422,-0.08292996138334274,-1.9917311668395996
1746522012150614800,4.39161474609375,0.3389947712421417,1.683888554573059,-1.8720018863677979
1746522012160603600,4.401603759765625,0.4877098500728607,2.1830573081970215,-1.4792311191558838
1746522012170591700,4.411591796875,0.26640090346336365,1.2343896627426147,-0.8380270004272461
1746522012180580900,4.421580810546875,-0.315973699092865,-0.4287746250629425,-0.11210677772760391
1746522012190570000,4.431570068359375,-1.0396519899368286,-1.9021363258361816,0.3991464078426361
1746522012200557800,4.441557861328125,-1.6236143112182617,-2.5925073623657227,0.5879924297332764
1746522012210546700,4.451546630859375,-2.018730401992798,-2.567129135131836,0.540276050567627
1746522012220535800,4.461535888671875,-2.3104536533355713,-2.032233476638794,0.3981682062149048
1746522012230524700,4.471524658203125,-2.5138943195343018,-1.2774440050125122,0.26565197110176086
1746522012240512800,4.4815126953125,-2.6128625869750977,-0.6014381647109985,0.17512713372707367
1746522012250502000,4.491501953125,-2.6340255737304688,-0.1599843055009842,0.10461462289094925
1746522012260490800,4.50149072265625,-2.566197156906128,0.0882234275341034,0.05493921786546707
1746522012270478800,4.511478759765625,-2.4185121059417725,0.2613281011581421,0.009789048694074154
1746522012280467700,4.5214677734375,-2.246889591217041,0.3064415752887726,-0.031152257695794106
1746522012290456800,4.531456787109375,-2.0103554725646973,0.18464137613773346,-0.10622463375329971
1746522012300445700,4.54144580078125,-1.6122329235076904,-0.16209933161735535,-0.23968710005283356
1746522012310433800,4.551433837890625,-1.0812993049621582,-0.7066057920455933,-0.4574122130870819
1746522012320423000,4.5614228515625,-0.5457127690315247,-1.2142884731292725,-0.7313159704208374
1746522012330411800,4.571411865234375,-0.10771755129098892,-1.5234832763671875,-0.9968717694282532
1746522012340400600,4.581400634765625,0.22363848984241486,-1.5819522142410278,-1.2419050931930542
1746522012350388700,4.591388671875,0.43172991275787354,-1.532710313796997,-1.4349497556686401
1746522012360377900,4.6013779296875,0.5168988108634949,-1.5130683183670044,-1.5443845987319946
1746522012370366700,4.61136669921875,0.5428638458251953,-1.5056853294372559,-1.5381072759628296
1746522012380354800,4.621354736328125,0.5710721611976624,-1.4498014450073242,-1.3915380239486694
1746522012390343700,4.63134375,0.6273663640022278,-1.2547550201416016,-1.0803245306015015
1746522012400332800,4.641332763671875,0.7039843797683716,-0.9398329257965088,-0.6225476861000061
1746522012410321700,4.65132177734375,0.7350085973739624,-0.5632278919219971,-0.04767158254981041
1746522012420309800,4.661309814453125,0.6925094127655029,-0.11276096850633621,0.6273108124732971
1746522012430299000,4.671298828125,0.6112363934516907,0.3788313865661621,1.3563405275344849
1746522012440287700,4.681287841796875,0.5579673647880554,0.7530805468559265,2.054497480392456
1746522012450275600,4.691275634765625,0.5164982080459595,0.8829956650733948,2.4937541484832764
1746522012460264700,4.7012646484375,0.5158659815788269,1.0212492942810059,2.4273386001586914
1746522012470253800,4.71125390625,0.5406728386878967,1.3221676349639893,1.850714921951294
1746522012480242700,4.72124267578125,0.6204298138618469,1.836013674736023,0.9477999210357666
1746522012490230800,4.731230712890625,0.7925094366073608,2.3730459213256836,0.04376113414764404
1746522012500220000,4.741219970703125,1.0150914192199707,2.5406875610351562,-0.5500513315200806
1746522012510208800,4.751208740234375,1.310415267944336,2.3611223697662354,-0.7947816848754883
1746522012520196600,4.761196533203125,1.6430745124816895,2.021120309829712,-0.8073151111602783
1746522012530185700,4.771185791015625,1.8663607835769653,1.6548492908477783,-0.7086428999900818
1746522012540174800,4.7811748046875,1.8754231929779053,1.3042675256729126,-0.59732985496521
1746522012550163700,4.791163818359375,1.7029303312301636,1.0214755535125732,-0.5476518869400024
1746522012560151800,4.80115185546875,1.4774500131607056,0.8673314452171326,-0.5785826444625854
1746522012570141000,4.811140869140625,1.3479156494140625,0.8537298440933228,-0.6802114844322205
1746522012580129800,4.8211298828125,1.3522683382034302,0.9705501198768616,-0.8327941298484802
1746522012590117600,4.83111767578125,1.4562360048294067,1.1706194877624512,-1.0067837238311768
1746522012600106800,4.841106689453125,1.663931965827942,1.3274760246276855,-1.1358857154846191
1746522012610095600,4.851095703125,1.9014734029769897,1.3085569143295288,-1.2119029760360718
1746522012620084700,4.861084716796875,2.0577917098999023,1.0397127866744995,-1.2886710166931152
1746522012630072800,4.87107275390625,2.120296001434326,0.6591554284095764,-1.3648617267608643
1746522012640062000,4.88106201171875,2.0616540908813477,0.29204675555229187,-1.3496065139770508
1746522012650050800,4.89105078125,1.859557032585144,-0.10223051905632019,-1.112932801246643
1746522012660038700,4.90103857421875,1.5898971557617188,-0.42753979563713074,-0.6498187184333801
1746522012670027800,4.91102783203125,1.27180016040802,-0.5289273858070374,-0.056237634271383286
1746522012680017200,4.92101708984375,0.9127205014228821,-0.41883015632629395,0.46504658460617065
1746522012690006300,4.93100634765625,0.6072284579277039,-0.264540433883667,0.7124638557434082
1746522012699994400,4.940994384765625,0.449494868516922,-0.23328955471515656,0.6777913570404053
1746522012709983200,4.950983154296875,0.4436934292316437,-0.2938232123851776,0.48798492550849915
1746522012719972000,4.96097216796875,0.5202785134315491,-0.3562752306461334,0.30225393176078796
1746522012729960200,4.970960205078125,0.5854660868644714,-0.45188191533088684,0.25923722982406616
1746522012739949300,4.98094921875,0.5566020607948303,-0.5834091305732727,0.38747188448905945
1746522012749938200,4.990938232421875,0.39672476053237915,-0.7230626344680786,0.6227585077285767
1746522012759927300,5.00092724609375,0.12263069301843643,-0.7958959937095642,0.8997503519058228
1746522012769915400,5.010915283203125,-0.1901802122592926,-0.7260801792144775,1.1585907936096191
1746522012779904000,5.020904052734375,-0.47479408979415894,-0.4652103781700134,1.314996361732483
1746522012789893000,5.03089306640625,-0.6826503276824951,-0.050634246319532394,1.3065956830978394
1746522012799882200,5.04088232421875,-0.8947336077690125,0.25098124146461487,1.2561426162719727
1746522012809870300,5.050870361328125,-1.1187812089920044,0.4752177894115448,1.3109499216079712
1746522012819859200,5.060859130859375,-1.2165987491607666,0.6858704686164856,1.5333201885223389
1746522012829848300,5.070848388671875,-1.2062547206878662,0.9481169581413269,1.8248896598815918
1746522012839836200,5.080836181640625,-1.1520967483520508,1.4669489860534668,1.8648072481155396
1746522012849825000,5.090824951171875,-1.1259061098098755,2.25471568107605,1.3932461738586426
1746522012859814100,5.100814208984375,-1.2592822313308716,2.7005655765533447,0.4854852855205536
1746522012869802200,5.11080224609375,-1.5052379369735718,2.255094528198242,-0.5946936011314392
1746522012879791400,5.120791259765625,-1.7056469917297363,1.053473711013794,-1.567283272743225
1746522012889780200,5.1307802734375,-1.7144944667816162,-0.5660562515258789,-2.21166729927063
1746522012899769300,5.140769287109375,-1.5096280574798584,-2.1820852756500244,-2.461365222930908
1746522012909757200,5.150757080078125,-1.14384126663208,-3.2239081859588623,-2.4012951850891113
1746522012919746000,5.16074609375,-0.8005659580230713,-3.593479633331299,-2.213423728942871
1746522012929735200,5.170735107421875,-0.6114988327026367,-3.4473156929016113,-1.954018473625183
1746522012939723300,5.18072314453125,-0.6372851133346558,-2.893524408340454,-1.6042689085006714
1746522012949712400,5.19071240234375,-0.8374456167221069,-2.083949565887451,-1.1803722381591797
1746522012959701200,5.200701171875,-1.1756017208099365,-1.2286832332611084,-0.6945206522941589
1746522012969690400,5.2106904296875,-1.5902588367462158,-0.4719201624393463,-0.15798316895961761
1746522012979678200,5.22067822265625,-1.9694023132324219,0.09494362771511078,0.41051408648490906
1746522012989667000,5.2306669921875,-2.2239177227020264,0.5627121329307556,0.9637562036514282
1746522012999656200,5.24065625,-2.3333702087402344,0.9886942505836487,1.4487954378128052
1746522013009644300,5.250644287109375,-2.286451578140259,1.340554118156433,1.8111810684204102
1746522013019633400,5.26063330078125,-2.091017723083496,1.632372260093689,1.9763168096542358
1746522013029622300,5.270622314453125,-1.757466197013855,1.7919992208480835,1.9311988353729248
1746522013039611400,5.280611328125,-1.38266122341156,1.7328723669052124,1.7093614339828491
1746522013049599200,5.29059912109375,-1.0421398878097534,1.428669810295105,1.3706891536712646
1746522013059588000,5.300588134765625,-0.7386806011199951,0.9059275984764099,0.9701158404350281
1746522013069577200,5.3105771484375,-0.45936158299446106,0.2732108533382416,0.5798445343971252
1746522013079565300,5.3205654296875,-0.1890835016965866,-0.39849361777305603,0.27994731068611145
1746522013089554400,5.330554443359375,0.07968032360076904,-0.9646291732788086,0.11872059851884842
1746522013099543300,5.340543212890625,0.3941197693347931,-1.2910206317901611,0.0904492661356926
1746522013109532200,5.3505322265625,0.7903974056243896,-1.3052822351455688,0.17274147272109985
1746522013119520300,5.360520263671875,1.224668264389038,-1.0439305305480957,0.34571459889411926
1746522013129509000,5.370509033203125,1.6052014827728271,-0.574165403842926,0.5851929187774658
1746522013139498200,5.380498291015625,1.927323818206787,-0.07533447444438934,0.8521849513053894
1746522013149486300,5.390486328125,2.1490700244903564,0.19892637431621552,1.1825021505355835
1746522013159475200,5.40047509765625,2.211199998855591,0.3087897002696991,1.5622894763946533
1746522013169464000,5.410464111328125,2.1788036823272705,0.40566378831863403,2.0380232334136963
1746522013179453200,5.420453125,2.0972414016723633,0.5421215891838074,2.6591482162475586
1746522013189441300,5.430441162109375,1.9860154390335083,0.7822406888008118,3.2387194633483887
1746522013199430100,5.44043017578125,1.8028243780136108,1.4116079807281494,3.5114035606384277
1746522013209419300,5.450419189453125,1.631832480430603,2.418684959411621,3.2875301837921143
1746522013219408400,5.460408447265625,1.4386781454086304,3.412078380584717,2.5902273654937744
1746522013229396200,5.470396240234375,1.1651084423065186,4.012535572052002,1.7063302993774414
1746522013239385000,5.480385009765625,0.9188261032104492,4.0039849281311035,0.9553267955780029
1746522013249374200,5.490374267578125,0.7713826298713684,3.350612163543701,0.4450494349002838
1746522013259362300,5.5003623046875,0.6315843462944031,2.295180082321167,0.09791730344295502
1746522013269351200,5.51035107421875,0.4836966097354889,1.173184871673584,-0.28498879075050354
1746522013279340300,5.52034033203125,0.4277951717376709,0.36645177006721497,-0.8214304447174072
1746522013289329400,5.530329345703125,0.4632514417171478,0.04291285201907158,-1.3862106800079346
1746522013299317200,5.540317138671875,0.6376047730445862,0.2125535011291504,-1.7793787717819214
1746522013309306000,5.55030615234375,0.874634861946106,0.71729576587677,-1.9332427978515625
1746522013319295200,5.560295166015625,1.059849500656128,1.2824628353118896,-1.8907729387283325
1746522013329283300,5.570283447265625,1.1304928064346313,1.6581264734268188,-1.7567235231399536
1746522013339272200,5.580272216796875,1.1078215837478638,1.8060588836669922,-1.6178643703460693
1746522013349261300,5.59026123046875,0.9945986270904541,1.6387543678283691,-1.4926782846450806
1746522013359250400,5.60025048828125,0.8064309358596802,1.1803022623062134,-1.3441095352172852
1746522013369238000,5.610238037109375,0.6033886075019836,0.6180471777915955,-1.163752794265747
1746522013379227100,5.62022705078125,0.41177043318748474,0.13920488953590393,-0.9887629747390747
1746522013389216300,5.63021630859375,0.25669777393341064,-0.1539257913827896,-0.8051824569702148
1746522013399205000,5.640205078125,0.18097470700740814,-0.2538725733757019,-0.5987429618835449
1746522013409193200,5.650193115234375,0.19573527574539185,-0.2129317969083786,-0.36891645193099976
1746522013419182300,5.660182373046875,0.24095706641674042,-0.10867583751678467,-0.10070283710956573
1746522013429171200,5.670171142578125,0.26512420177459717,-0.0200013630092144,0.20315878093242645
1746522013439159000,5.680158935546875,0.2588850259780884,0.015175954438745975,0.5237679481506348
1746522013449148200,5.690148193359375,0.2390894889831543,-0.03526564687490463,0.8177779912948608
1746522013459137300,5.70013720703125,0.22626566886901855,-0.3415411412715912,1.0529791116714478
1746522013469126100,5.710126220703125,0.20118428766727448,-0.9396194815635681,1.2229961156845093
1746522013479114200,5.7201142578125,0.16768845915794373,-1.9273602962493896,1.3185594081878662
1746522013489103400,5.730103271484375,0.0745324119925499,-3.155708074569702,1.3274058103561401
1746522013499092200,5.74009228515625,-0.05159857124090195,-4.139238357543945,1.2483893632888794
1746522013509080000,5.750080078125,-0.08266488462686539,-4.571835517883301,1.1881225109100342
1746522013519069200,5.760069091796875,-0.08903434872627258,-4.681640148162842,1.3302173614501953
1746522013529058300,5.770058349609375,-0.12205354869365692,-4.221715450286865,1.6750797033309937
1746522013539047200,5.780047119140625,-0.2511572539806366,-3.2450673580169678,1.9163668155670166
1746522013549035300,5.79003515625,-0.568333089351654,-2.3197460174560547,1.960876226425171
1746522013559024400,5.8000244140625,-1.0141398906707764,-1.5207709074020386,1.6177791357040405
1746522013569013000,5.810012939453125,-1.4751005172729492,-0.327350378036499,0.7161738276481628
1746522013579001000,5.8200009765625,-1.9177172183990479,1.3082618713378906,-0.4241911470890045
1746522013588990200,5.829990234375,-2.2699756622314453,2.529891014099121,-1.159361481666565
1746522013598979300,5.839979248046875,-2.4437153339385986,2.6818742752075195,-1.2943025827407837
1746522013608968200,5.84996826171875,-2.3745861053466797,1.796109914779663,-0.9760929942131042
1746522013618956300,5.859956298828125,-2.1823976039886475,0.3409554660320282,-0.5455272197723389
1746522013628945200,5.869945068359375,-2.070706367492676,-1.258321762084961,-0.19644427299499512
1746522013638934000,5.87993408203125,-1.9340646266937256,-2.892631769180298,0.18737129867076874
1746522013648923100,5.889923095703125,-1.7730432748794556,-3.7324962615966797,0.4056013524532318
1746522013658911200,5.8999111328125,-1.627953290939331,-3.6440281867980957,0.40965044498443604
1746522013668900400,5.909900390625,-1.4612058401107788,-2.9449050426483154,0.40967628359794617
1746522013678889500,5.919889404296875,-1.3394243717193604,-1.911284327507019,0.33676689863204956
1746522013688877300,5.929877197265625,-1.1780163049697876,-0.915931761264801,0.08949612826108932
1746522013698866400,5.939866455078125,-1.0431405305862427,-0.24166560173034668,-0.31606629490852356
1746522013708855300,5.949855224609375,-0.9632728099822998,-0.0056370897218585014,-0.8481057286262512
1746522013718844400,5.959844482421875,-0.9090669751167297,-0.06447663903236389,-1.3927558660507202
1746522013728832500,5.96983251953125,-0.8423891067504883,-0.3809102177619934,-1.7692352533340454
1746522013738821600,5.979821533203125,-0.756201446056366,-0.7840405106544495,-1.8867837190628052
1746522013748810200,5.989810302734375,-0.6174328923225403,-1.0620006322860718,-1.7560161352157593
1746522013758798300,5.99979833984375,-0.41669681668281555,-1.15135657787323,-1.425125002861023
1746522013768787500,6.009787353515625,-0.21237854659557343,-1.0698806047439575,-1.0031095743179321
1746522013778776300,6.0197763671875,-0.0366005040705204,-0.8183518052101135,-0.6034693121910095
1746522013788765400,6.029765380859375,0.1447080373764038,-0.3597528040409088,-0.283163458108902
1746522013798753500,6.03975341796875,0.330598384141922,0.22912751138210297,-0.061228927224874496
1746522013808742400,6.049742431640625,0.4926765263080597,0.7925807237625122,0.04867520183324814
1746522013818731300,6.059731201171875,0.6453171968460083,1.2564897537231445,0.043813858181238174
1746522013828719400,6.06971923828125,0.7835861444473267,1.590363621711731,-0.053062885999679565
1746522013838708500,6.07970849609375,0.8802119493484497,1.8104360103607178,-0.21305574476718903
1746522013848697300,6.089697265625,0.9708986878395081,1.8572945594787598,-0.40973100066185
1746522013858686500,6.0996865234375,1.0546159744262695,1.6057771444320679,-0.6541623473167419
1746522013868674300,6.10967431640625,1.160055160522461,1.1331901550292969,-0.925161600112915
1746522013878663400,6.119663330078125,1.2837010622024536,0.6412075161933899,-1.1353256702423096
1746522013888652300,6.12965234375,1.3611849546432495,0.27504897117614746,-1.1339424848556519
1746522013898640400,6.139640380859375,1.3297899961471558,0.17115560173988342,-0.7846779227256775
1746522013908629500,6.14962939453125,1.2149707078933716,0.4242746829986572,-0.1077202558517456
1746522013918618400,6.159618408203125,1.0746345520019531,1.1605968475341797,0.6363767981529236
1746522013928607500,6.169607421875,1.014877438545227,2.3317174911499023,1.0873037576675415
1746522013938595300,6.17959521484375,1.0352762937545776,3.4572243690490723,1.026304841041565
1746522013948584200,6.189584228515625,1.0482605695724487,3.9910969734191895,0.5057253241539001
1746522013958573300,6.1995732421875,1.027144193649292,3.62394642829895,-0.318954199552536
1746522013968561400,6.2095615234375,1.1672453880310059,2.651394844055176,-1.2719753980636597
1746522013978550500,6.219550537109375,1.4519233703613281,1.502739667892456,-2.1215860843658447
1746522013988539400,6.229539306640625,1.7153977155685425,0.5276056528091431,-2.6776082515716553
1746522013998528500,6.239528564453125,1.859506368637085,-0.1295417696237564,-2.851461887359619
1746522014008516400,6.249516357421875,1.868823766708374,-0.37854334712028503,-2.661741018295288
1746522014018505200,6.259505126953125,1.7815982103347778,-0.19166745245456696,-2.174708843231201
1746522014028494300,6.269494384765625,1.6444240808486938,0.3126639127731323,-1.520912766456604
1746522014038482400,6.279482421875,1.5380622148513794,0.9107679724693298,-0.8662422895431519
1746522014048471600,6.289471435546875,1.4490517377853394,1.4044101238250732,-0.3484487235546112
1746522014058460400,6.29946044921875,1.367672324180603,1.6369881629943848,-0.032884374260902405
1746522014068449500,6.309449462890625,1.2593053579330444,1.5825166702270508,0.08049304783344269
1746522014078437400,6.319437255859375,1.1062850952148438,1.3224140405654907,0.006018287036567926
1746522014088426200,6.32942626953125,0.9023083448410034,0.9115586876869202,-0.1415136456489563
1746522014098415400,6.339415283203125,0.6822201013565063,0.4188649356365204,-0.2080002725124359
1746522014108403500,6.349403564453125,0.48369473218917847,0.07647164911031723,-0.14999927580356598
1746522014118392600,6.359392578125,0.35217443108558655,0.05222621560096741,-0.012589220888912678
1746522014128381400,6.36938134765625,0.2962499260902405,0.2883007824420929,0.20267009735107422
1746522014138369300,6.379369384765625,0.24728044867515564,0.648088276386261,0.4877132773399353
1746522014148358400,6.3893583984375,0.18817637860774994,0.9609526991844177,0.8019772171974182
1746522014158347300,6.39934716796875,0.12639857828617096,1.075089931488037,1.085917353630066
1746522014168336400,6.40933642578125,0.02185087464749813,0.9806528687477112,1.2881345748901367
1746522014178324500,6.419324462890625,-0.11785425990819931,0.6965108513832092,1.3789247274398804
1746522014188313600,6.429313720703125,-0.24981282651424408,0.29912832379341125,1.3579256534576416
1746522014198302500,6.439302490234375,-0.3884325623512268,-0.22874027490615845,1.2422033548355103
1746522014208290300,6.449290283203125,-0.5280487537384033,-0.9359109997749329,1.0205864906311035
1746522014218279400,6.459279541015625,-0.6452284455299377,-1.5819745063781738,0.7051337957382202
1746522014228268300,6.469268310546875,-0.6749714612960815,-1.9116528034210205,0.3944765329360962
1746522014238257400,6.47925732421875,-0.6543261408805847,-1.939706563949585,0.1822391152381897
1746522014248245500,6.48924560546875,-0.7104863524436951,-1.84877347946167,0.15304447710514069
1746522014258234600,6.499234619140625,-0.8549886345863342,-1.717452049255371,0.22501161694526672
1746522014268223200,6.50922314453125,-1.063254475593567,-1.6439948081970215,0.28224480152130127
1746522014278211300,6.51921142578125,-1.3454004526138306,-1.6524053812026978,0.27478155493736267
1746522014288200400,6.529200439453125,-1.6476889848709106,-1.5673182010650635,0.09593646228313446
1746522014298189300,6.539189208984375,-1.942628026008606,-1.1028817892074585,-0.3912409245967865
1746522014308178400,6.549178466796875,-2.172280788421631,-0.031950924545526505,-1.0951300859451294
1746522014318166500,6.55916650390625,-2.135383367538452,0.9698721766471863,-1.6818671226501465
1746522014328155400,6.5691552734375,-1.9182358980178833,1.178139090538025,-1.8999181985855103
1746522014338144300,6.579144287109375,-1.7305188179016113,0.5657779574394226,-1.7436622381210327
1746522014348132400,6.58913232421875,-1.634546160697937,-0.5524846911430359,-1.3352638483047485
1746522014358121500,6.59912158203125,-1.6146167516708374,-1.731918454170227,-0.8618238568305969
1746522014368110300,6.6091103515625,-1.6590622663497925,-2.4943618774414062,-0.5244356989860535
1746522014378098400,6.619098388671875,-1.6858035326004028,-2.73117733001709,-0.3783901035785675
1746522014388087600,6.629087646484375,-1.6930508613586426,-2.5399606227874756,-0.32429730892181396
1746522014398076400,6.639076416015625,-1.7382773160934448,-2.0908544063568115,-0.2362167090177536
1746522014408065300,6.649065185546875,-1.815510869026184,-1.5484261512756348,-0.050439924001693726
1746522014418053400,6.659053466796875,-1.8974930047988892,-0.9993647933006287,0.18112219870090485
1746522014428042500,6.66904248046875,-1.971264123916626,-0.506420910358429,0.3922741115093231
1746522014438031400,6.67903125,-2.037868022918701,-0.1770372837781906,0.5359373092651367
1746522014448019500,6.68901953125,-2.0765066146850586,-0.013495491817593575,0.5930320024490356
1746522014458008300,6.69900830078125,-2.0552101135253906,0.03307493403553963,0.5523956418037415
1746522014467997400,6.70899755859375,-1.9224467277526855,-0.011020885780453682,0.44042861461639404
1746522014477986300,6.718986328125,-1.659186840057373,-0.10878695547580719,0.29174429178237915
1746522014487974400,6.728974365234375,-1.3213955163955688,-0.24468380212783813,0.1197855994105339
1746522014497963500,6.738963623046875,-1.003879189491272,-0.44559064507484436,-0.0724932923913002
1746522014507952400,6.748952392578125,-0.7395340800285339,-0.7085050940513611,-0.28164198994636536
1746522014517940200,6.758940185546875,-0.4934034049510956,-0.9826554656028748,-0.45080330967903137
1746522014527929300,6.768929443359375,-0.2674802541732788,-1.232261061668396,-0.5388830900192261
1746522014537918200,6.778918212890625,-0.05681224539875984,-1.4271917343139648,-0.5315460562705994
1746522014547906300,6.78890625,0.16570337116718292,-1.5069416761398315,-0.4466594457626343
1746522014557895400,6.7988955078125,0.4013221859931946,-1.4186993837356567,-0.2777596414089203
1746522014567884500,6.808884521484375,0.6369818449020386,-1.1495387554168701,-0.07133402675390244
1746522014577872400,6.818872314453125,0.8641384243965149,-0.7386710047721863,0.14371252059936523
1746522014587861200,6.828861328125,1.0680454969406128,-0.2507742941379547,0.36519962549209595
1746522014597850400,6.838850341796875,1.1882730722427368,0.2129572033882141,0.6239821910858154
1746522014607839200,6.848839111328125,1.2128593921661377,0.5094215869903564,0.9299660921096802
1746522014617827300,6.858827392578125,1.184968113899231,0.6124923825263977,1.2846626043319702
1746522014627816400,6.86881640625,1.197077989578247,0.6325693726539612,1.6231440305709839
1746522014637805600,6.8788056640625,1.2387983798980713,0.5311237573623657,1.8182640075683594
1746522014647793400,6.88879345703125,1.2713816165924072,0.2848111689090729,1.6881129741668701
1746522014657782300,6.8987822265625,1.3074198961257935,0.14146029949188232,1.0373021364212036
1746522014667771400,6.908771484375,1.419482707977295,0.2640402615070343,-0.12575677037239075
1746522014677760000,6.918760009765625,1.5305222272872925,0.5315697193145752,-1.4614734649658203
1746522014687748000,6.928748046875,1.592549204826355,0.8247648477554321,-2.530064105987549
1746522014697737200,6.9387373046875,1.649544596672058,1.0913606882095337,-3.075373649597168
1746522014707726000,6.94872607421875,1.6356236934661865,1.3125494718551636,-3.0637621879577637
1746522014717714200,6.958714111328125,1.4829883575439453,1.4571118354797363,-2.6041038036346436
1746522014727703000,6.968703125,1.2077668905258179,1.3991872072219849,-1.9322377443313599
1746522014737692200,6.978692138671875,0.9176395535469055,1.28597092628479,-1.2773549556732178
1746522014747680300,6.98868017578125,0.7221502065658569,1.303463101387024,-0.7576037049293518
1746522014757669000,6.998669189453125,0.671890914440155,1.3511022329330444,-0.43396228551864624
1746522014767658000,7.008657958984375,0.7120814323425293,1.3344388008117676,-0.3279128074645996
1746522014777647000,7.018647216796875,0.7995862364768982,1.2706477642059326,-0.416198194026947
1746522014787635200,7.02863525390625,0.9441266655921936,1.1120187044143677,-0.6288648843765259
1746522014797624000,7.0386240234375,1.1156972646713257,0.7849364280700684,-0.86763995885849
1746522014807613200,7.04861328125,1.244198203086853,0.3592029809951782,-1.1037323474884033
1746522014817601300,7.058601318359375,1.304373860359192,-0.03677038103342056,-1.3433542251586914
1746522014827590000,7.06858984375,1.3006510734558105,-0.38932710886001587,-1.5706710815429688
1746522014837579000,7.0785791015625,1.2288789749145508,-0.7179642915725708,-1.6840623617172241
1746522014847567000,7.088567138671875,1.068281650543213,-0.9802553057670593,-1.6365795135498047
1746522014857556200,7.09855615234375,0.8029888272285461,-1.0726544857025146,-1.4125524759292603
1746522014867545000,7.108545166015625,0.4841250777244568,-0.972366988658905,-0.9562347531318665
1746522014877534200,7.1185341796875,0.2197732925415039,-0.658519446849823,-0.30842381715774536
1746522014887522300,7.128522216796875,0.10718043893575668,-0.23384243249893188,0.4228282868862152
1746522014897511000,7.138510986328125,0.1339578479528427,0.08972091972827911,1.1115678548812866
1746522014907500000,7.1485,0.24132132530212402,0.13678216934204102,1.5470000505447388
1746522014917488000,7.158488037109375,0.2915656864643097,-0.07350359857082367,1.5950995683670044
1746522014927477200,7.168477294921875,0.22013860940933228,-0.3372846245765686,1.2214765548706055
1746522014937466000,7.178466064453125,0.0982220470905304,-0.44799745082855225,0.5132666230201721
1746522014947454200,7.1884541015625,-0.05920672416687012,-0.44431430101394653,-0.18870218098163605
1746522014957443000,7.198443115234375,-0.27732041478157043,-0.27867281436920166,-0.5557451844215393
1746522014967432000,7.208431884765625,-0.47784820199012756,-0.156098410487175,-0.522377610206604
1746522014977420000,7.218419921875,-0.5213595032691956,-0.2157260924577713,-0.38731861114501953
1746522014987409200,7.2284091796875,-0.42684391140937805,-0.16056270897388458,-0.5542764067649841
1746522014997398000,7.23839794921875,-0.24395447969436646,0.2037828117609024,-1.1513954401016235
1746522015007387100,7.24838720703125,-0.06332985311746597,0.6903561949729919,-2.065161943435669
1746522015017375000,7.258375,-0.03823396936058998,1.0715616941452026,-2.924502372741699
1746522015027364000,7.268364013671875,-0.16183340549468994,1.300339698791504,-3.3714067935943604
1746522015037353000,7.27835302734375,-0.3612860143184662,1.1668131351470947,-3.280564069747925
1746522015047341000,7.288341064453125,-0.5584722757339478,0.7812970876693726,-2.7671732902526855
1746522015057330200,7.298330078125,-0.7739848494529724,0.4927718937397003,-2.1028027534484863
1746522015067319000,7.308319091796875,-0.9578034281730652,0.34693852066993713,-1.493467926979065
1746522015077307000,7.318306884765625,-1.0575474500656128,0.22486107051372528,-1.0125294923782349
1746522015087296000,7.3282958984375,-1.1583994626998901,0.11171986907720566,-0.6276187896728516
1746522015097285000,7.33828515625,-1.3381986618041992,0.12103447318077087,-0.28412753343582153
1746522015107274000,7.34827392578125,-1.5451850891113281,0.18003946542739868,0.08261319994926453
1746522015117262000,7.358261962890625,-1.704023003578186,0.26665204763412476,0.5517447590827942
1746522015127251200,7.368251220703125,-1.7908082008361816,0.32739847898483276,1.0879120826721191
1746522015137240000,7.378239990234375,-1.8229820728302002,0.4002121090888977,1.5981204509735107
1746522015147228000,7.388227783203125,-1.8044719696044922,0.4544748067855835,2.029895305633545
1746522015157217000,7.398217041015625,-1.7270169258117676,0.4016771912574768,2.2953691482543945
1746522015167206100,7.4082060546875,-1.5583645105361938,0.14502304792404175,2.2680184841156006
1746522015177194200,7.4181943359375,-1.3636077642440796,-0.27213460206985474,1.9653948545455933
1746522015187183000,7.42818310546875,-1.1781307458877563,-0.6536010503768921,1.502915859222412
1746522015197172200,7.438172119140625,-1.03902268409729,-1.0454410314559937,1.0521955490112305
1746522015207160000,7.44816015625,-0.9446729421615601,-1.3746777772903442,0.7382280826568604
1746522015217149000,7.45814892578125,-0.8471656441688538,-1.5308077335357666,0.6230074763298035
1746522015227138000,7.468137939453125,-0.6875384449958801,-1.4631813764572144,0.720625102519989
1746522015237126100,7.478126220703125,-0.3976041078567505,-1.0829527378082275,1.0168235301971436
1746522015247115000,7.488114990234375,0.05501342937350273,-0.34743374586105347,1.4554396867752075
1746522015257104100,7.498104248046875,0.5893442034721375,0.7135241031646729,1.978568196296692
1746522015267093200,7.50809326171875,1.0237410068511963,1.8796411752700806,2.5558342933654785
1746522015277081000,7.5180810546875,1.2404245138168335,2.8111186027526855,3.1111414432525635
1746522015287070000,7.528070068359375,1.2454770803451538,3.2556803226470947,3.454711437225342
1746522015297059000,7.53805908203125,1.0319269895553589,2.7013418674468994,3.499635934829712
1746522015307047200,7.548047119140625,0.7475205063819885,1.3148376941680908,3.1796813011169434
1746522015317036000,7.5580361328125,0.5835253000259399,-0.11098688840866089,2.4450578689575195
1746522015327025200,7.568025146484375,0.6776454448699951,-0.882583498954773,1.383598804473877
1746522015337013000,7.578012939453125,1.0255752801895142,-0.6916569471359253,0.2146729677915573
1746522015347002000,7.588002197265625,1.3254163265228271,0.27994996309280396,-0.8114765286445618
1746522015356991000,7.597990966796875,1.4247267246246338,1.4376364946365356,-1.4917277097702026
1746522015366979000,7.60797900390625,1.3988629579544067,2.250063180923462,-1.7847892045974731
1746522015376968200,7.61796826171875,1.378127932548523,2.517091989517212,-1.8138517141342163
1746522015386957000,7.62795703125,1.284364104270935,2.3769166469573975,-1.7795629501342773
1746522015396945000,7.63794482421875,1.0801693201065063,1.9132606983184814,-1.6290853023529053
1746522015406934000,7.64793408203125,0.9053168892860413,1.2320449352264404,-1.2778117656707764
1746522015416923100,7.657923095703125,0.8502370119094849,0.7051874995231628,-0.8787423968315125
1746522015426912000,7.667912109375,0.9256047606468201,0.5135948657989502,-0.6158944964408875
1746522015436900000,7.677900146484375,1.0733306407928467,0.4698067605495453,-0.47370675206184387
1746522015446889200,7.68788916015625,1.2080937623977661,0.43698275089263916,-0.42292505502700806
1746522015456878000,7.697878173828125,1.2964128255844116,0.3735691010951996,-0.474107563495636
1746522015466866000,7.707865966796875,1.338205337524414,0.17226047813892365,-0.5878836512565613
1746522015476855000,7.71785498046875,1.3264045715332031,-0.17192330956459045,-0.7140892744064331
1746522015486844200,7.72784423828125,1.2906410694122314,-0.5788514018058777,-0.8183946013450623
1746522015496832300,7.737832275390625,1.2587478160858154,-0.9342507123947144,-0.8853587508201599
1746522015506821000,7.747821044921875,1.2546130418777466,-1.140816330909729,-0.8998854756355286
1746522015516810200,7.757810302734375,1.2714518308639526,-1.150037407875061,-0.8389294743537903
1746522015526798000,7.767798095703125,1.2718843221664429,-0.9479753971099854,-0.6922571659088135
1746522015536787000,7.777786865234375,1.2057887315750122,-0.6426721215248108,-0.4883008599281311
1746522015546776000,7.787776123046875,1.025378704071045,-0.40158945322036743,-0.3361576795578003
1746522015556765200,7.79776513671875,0.7828032970428467,-0.33515259623527527,-0.3753492832183838
1746522015566753000,7.8077529296875,0.5419176816940308,-0.4002586305141449,-0.5896841883659363
1746522015576742100,7.8177421875,0.2865973114967346,-0.5463529229164124,-0.7862057685852051
1746522015586731300,7.827731201171875,0.0008912466000765562,-0.7094339728355408,-0.7980760335922241
1746522015596719000,7.837718994140625,-0.18190164864063263,-0.734440267086029,-0.5472254157066345
1746522015606708000,7.8477080078125,-0.20580431818962097,-0.581881046295166,-0.006933976896107197
1746522015616697000,7.857697021484375,-0.14167916774749756,-0.23473134636878967,0.7326716780662537
1746522015626685200,7.867685302734375,-0.05781330168247223,0.21295641362667084,1.4516825675964355
1746522015636674000,7.877674072265625,-0.07597460597753525,0.6359757781028748,1.8632599115371704
1746522015646663200,7.8876630859375,-0.2486523687839508,0.8712682127952576,1.8753437995910645
1746522015656651000,7.897651123046875,-0.5946398973464966,0.648325502872467,1.5828677415847778
1746522015666640100,7.90764013671875,-1.0898680686950684,0.1650211364030838,1.155779480934143
1746522015676629200,7.917629150390625,-1.6903969049453735,-0.4163300096988678,0.8296679854393005
1746522015686618400,7.927618408203125,-2.269491672515869,-0.6847987771034241,0.6379464864730835
1746522015696606500,7.9376064453125,-2.5635762214660645,-0.30578964948654175,0.3801111876964569
1746522015706595300,7.94759521484375,-2.5197038650512695,0.48587068915367126,0.05502418801188469
1746522015716584400,7.95758447265625,-2.3139538764953613,0.6510244607925415,-0.1529918611049652
1746522015726572300,7.967572265625,-2.236670732498169,-0.13404086232185364,-0.19834016263484955
1746522015736561400,7.9775615234375,-2.296168804168701,-1.2430415153503418,-0.17836353182792664
1746522015746550300,7.98755029296875,-2.3996810913085938,-2.075727939605713,-0.18914267420768738
1746522015756538400,7.997538330078125,-2.512799024581909,-2.418004035949707,-0.2513003349304199
1746522015766527500,8.007527587890625,-2.598233699798584,-2.3945672512054443,-0.3812023997306824
1746522015776516400,8.017516357421876,-2.6392736434936523,-2.2233986854553223,-0.5770818591117859
1746522015786504200,8.027504150390625,-2.6934311389923096,-1.9670171737670898,-0.7810400724411011
1746522015796493300,8.037493408203124,-2.779496669769287,-1.637563705444336,-0.9367185831069946
1746522015806482400,8.047482421875,-2.789454698562622,-1.2546088695526123,-1.0454519987106323
1746522015816471300,8.05747119140625,-2.6452958583831787,-0.870497465133667,-1.085963249206543
1746522015826459400,8.06745947265625,-2.4750266075134277,-0.4988709092140198,-1.0411405563354492
1746522015836448500,8.077448486328125,-2.3804445266723633,-0.16831927001476288,-0.9182703495025635
1746522015846437400,8.087437255859374,-2.2804877758026123,0.056189730763435364,-0.7434911131858826
1746522015856425200,8.09742529296875,-2.1173582077026367,0.08948034048080444,-0.5471963882446289
1746522015866414300,8.107414306640624,-1.899001121520996,-0.00884995236992836,-0.39667028188705444
1746522015876403500,8.117403564453125,-1.6923586130142212,-0.2306387722492218,-0.3239276707172394
1746522015886391300,8.127391357421875,-1.4930388927459717,-0.5389611721038818,-0.33574438095092773
1746522015896380400,8.13738037109375,-1.302973985671997,-0.8159574270248413,-0.3886861205101013
1746522015906369500,8.14736962890625,-1.1225736141204834,-1.0193182229995728,-0.3849979043006897
1746522015916358400,8.1573583984375,-0.9341666102409363,-1.1160392761230469,-0.26496925950050354
1746522015926346200,8.16734619140625,-0.7081963419914246,-1.0751358270645142,-0.01806466467678547
1746522015936335400,8.17733544921875,-0.40013548731803894,-0.8229577541351318,0.29213449358940125
1746522015946324200,8.18732421875,0.002260171342641115,-0.2349162995815277,0.5670462250709534
1746522015956312300,8.197312255859375,0.43767833709716797,0.6587523818016052,0.7351545095443726
1746522015966301400,8.207301513671876,0.8446397185325623,1.6644922494888306,0.8006435036659241
1746522015976290600,8.21729052734375,1.1139267683029175,2.4866628646850586,0.7849940061569214
1746522015986278400,8.2272783203125,1.1998217105865479,2.888784170150757,0.6903332471847534
1746522015996267300,8.237267333984375,1.1508804559707642,2.5556867122650146,0.6429372429847717
1746522016006256400,8.24725634765625,1.0133742094039917,1.5844159126281738,0.7853074669837952
1746522016016244500,8.257244384765626,0.8613141179084778,0.44255030155181885,1.061625361442566
1746522016026233300,8.2672333984375,0.9029877781867981,-0.1660163551568985,1.2110291719436646
1746522016036222500,8.277222412109374,1.2014738321304321,-0.0344776026904583,1.0128899812698364
1746522016046211300,8.28721142578125,1.5968483686447144,0.6419479846954346,0.46398958563804626
1746522016056199400,8.297199462890624,1.9201183319091797,1.4712013006210327,-0.25314241647720337
1746522016066188300,8.307188232421876,2.0151216983795166,1.8309046030044556,-0.8410913944244385
1746522016076177400,8.317177490234375,2.0425870418548584,1.8325986862182617,-1.2058008909225464
1746522016086165500,8.32716552734375,2.0553696155548096,1.7010552883148193,-1.3579607009887695
1746522016096154400,8.337154296875,1.9693286418914795,1.472967267036438,-1.293328881263733
1746522016106143200,8.347143310546874,1.740216612815857,1.1051838397979736,-1.0682803392410278
1746522016116131300,8.35713134765625,1.463820457458496,0.7460129261016846,-0.7810246348381042
1746522016126120400,8.367120361328125,1.2962716817855835,0.5248273015022278,-0.5015460848808289
1746522016136109300,8.377109375,1.2540086507797241,0.47675982117652893,-0.3112475275993347
1746522016146098400,8.387098388671875,1.2873437404632568,0.46419477462768555,-0.23719622194766998
1746522016156086500,8.39708642578125,1.392453908920288,0.3974718451499939,-0.3017091751098633
1746522016166075400,8.407075439453125,1.482032299041748,0.25837838649749756,-0.4678526222705841
1746522016176064300,8.417064208984375,1.508283019065857,0.04408927261829376,-0.6771480441093445
1746522016186052400,8.42705224609375,1.4956947565078735,-0.2218065857887268,-0.9119669198989868
1746522016196041500,8.43704150390625,1.467673659324646,-0.5182274580001831,-1.1491889953613281
1746522016206030300,8.4470302734375,1.4296637773513794,-0.7663025259971619,-1.3462637662887573
1746522016216018400,8.457018310546875,1.3686050176620483,-0.8858824968338013,-1.4059550762176514
1746522016226007600,8.467007568359374,1.28934645652771,-0.8135808706283569,-1.2619249820709229
1746522016235996200,8.47699609375,1.1719672679901123,-0.5986571311950684,-0.9017419815063477
1746522016245984300,8.486984375,1.0209074020385742,-0.2882966101169586,-0.3763067126274109
1746522016255973400,8.496973388671876,0.8706788420677185,0.06572247296571732,0.2521266043186188
1746522016265962200,8.506962158203125,0.6534213423728943,0.29163071513175964,0.893664538860321
1746522016275951400,8.516951416015624,0.35101544857025146,0.292449414730072,1.398321270942688
1746522016285939500,8.526939453125,0.005939008668065071,0.09951937198638916,1.697770595550537
1746522016295928300,8.53692822265625,-0.3017643690109253,-0.22663556039333344,1.7848607301712036
1746522016305917200,8.546917236328126,-0.5125341415405273,-0.581359326839447,1.7404013872146606
1746522016315905300,8.5569052734375,-0.5857377052307129,-0.8674412965774536,1.5698834657669067
1746522016325894400,8.566894287109376,-0.5382421016693115,-1.0159859657287598,1.2696105241775513
1746522016335883300,8.57688330078125,-0.47495272755622864,-1.0267879962921143,0.9594339728355408
1746522016345871400,8.586871337890624,-0.5859076976776123,-0.9103845953941345,0.6821552515029907
1746522016355860500,8.596860595703125,-0.8890525102615356,-0.6557638645172119,0.3953268826007843
1746522016365849300,8.606849365234375,-1.4214626550674438,-0.20415593683719635,0.17095611989498138
1746522016375838200,8.616838134765626,-2.206538200378418,0.13827480375766754,0.17935919761657715
1746522016385826300,8.626826416015625,-2.9944071769714355,0.287549763917923,0.3935255706310272
1746522016395815400,8.6368154296875,-3.3029136657714844,1.364091396331787,0.42871737480163574
1746522016405804300,8.64680419921875,-3.1807825565338135,3.453145742416382,0.17262406647205353
1746522016415792400,8.65679248046875,-2.961305856704712,4.792107105255127,0.03272101655602455
1746522016425781200,8.66678125,-2.8779380321502686,4.410545349121094,0.13596618175506592
1746522016435770400,8.676770263671875,-2.9587242603302,2.6138765811920166,0.3003292977809906
1746522016445758500,8.686758544921876,-3.1130566596984863,0.2498030811548233,0.303175687789917
1746522016455747300,8.696747314453125,-3.25453782081604,-1.5697070360183716,0.06291221082210541
1746522016465736400,8.706736328125,-3.315765380859375,-2.506042957305908,-0.26190581917762756
1746522016475724500,8.716724609375,-3.145110845565796,-2.7361526489257812,-0.43139442801475525
1746522016485713200,8.726713134765625,-2.868666648864746,-2.414525270462036,-0.32204583287239075
1746522016495702300,8.736702392578126,-2.600719928741455,-1.8285285234451294,0.008774409070611
1746522016505691400,8.74669140625,-2.3303885459899902,-1.173230528831482,0.44948574900627136
1746522016515679200,8.75667919921875,-2.0205116271972656,-0.5117121338844299,0.9068471789360046
1746522016525668400,8.76666845703125,-1.7384121417999268,0.07067219913005829,1.3236039876937866
1746522016535657500,8.776657470703125,-1.5265302658081055,0.37434130907058716,1.639643907546997
1746522016545645300,8.786645263671875,-1.3173877000808716,0.3744505047798157,1.760250210762024
1746522016555634200,8.79663427734375,-1.052718997001648,0.21656674146652222,1.6489697694778442
1746522016565623300,8.806623291015624,-0.7026629447937012,0.021182065829634666,1.3203649520874023
1746522016575611400,8.816611328125,-0.27053409814834595,-0.22137390077114105,0.812591016292572
1746522016585600300,8.826600341796874,0.1373484581708908,-0.525256335735321,0.23936128616333008
1746522016595589400,8.83658935546875,0.4607703387737274,-0.8704506158828735,-0.30898597836494446
1746522016605577500,8.846577392578125,0.6882072687149048,-1.2367335557937622,-0.7379229664802551
1746522016615566300,8.85656640625,0.8440696001052856,-1.5712618827819824,-1.0052976608276367
1746522016625555200,8.86655517578125,0.9996717572212219,-1.7269207239151,-1.126257061958313
1746522016635544300,8.87654443359375,1.2175387144088745,-1.7007051706314087,-1.0995628833770752
1746522016645532400,8.886532470703125,1.4806214570999146,-1.5241650342941284,-0.9422600865364075
1746522016655521300,8.896521240234375,1.7721871137619019,-1.1947482824325562,-0.7066217660903931
1746522016665510400,8.906510498046876,2.077503204345703,-0.7806941866874695,-0.47221723198890686
1746522016675498200,8.916498291015625,2.3630433082580566,-0.36221998929977417,-0.2821953594684601
1746522016685487400,8.9264873046875,2.5737273693084717,0.04462900385260582,-0.127232164144516
1746522016695476200,8.936476318359375,2.6655778884887695,0.3536834418773651,0.02940005622804165
1746522016705464300,8.94646435546875,2.6349732875823975,0.41080158948898315,0.21724797785282135
1746522016715453400,8.956453369140625,2.4864237308502197,0.14830195903778076,0.4276028275489807
1746522016725442300,8.9664423828125,2.302983522415161,-0.32565417885780334,0.6729364395141602
1746522016735430100,8.97643017578125,2.191739559173584,-0.6196580529212952,0.8665714263916016
1746522016745419300,8.986419189453125,2.269160032272339,-0.41081374883651733,0.857285737991333
1746522016755408400,8.996408447265624,2.541254997253418,0.360779732465744,0.48664218187332153
1746522016765396500,9.006396484375,2.871166706085205,1.4279050827026367,-0.25300872325897217
1746522016775385300,9.01638525390625,2.944377899169922,2.208481550216675,-1.1197582483291626
1746522016785374500,9.02637451171875,2.7263994216918945,2.3367691040039062,-1.807512640953064
1746522016795363300,9.03636328125,2.3754539489746094,1.814093828201294,-2.1953811645507812
1746522016805351200,9.04635107421875,2.0376827716827393,0.9162322282791138,-2.259483814239502
1746522016815340300,9.05634033203125,1.698919415473938,0.06103898212313652,-2.0152432918548584
1746522016825329400,9.066329345703124,1.4641926288604736,-0.43651968240737915,-1.5476245880126953
1746522016835317200,9.076317138671875,1.5334596633911133,-0.4391465485095978,-1.0014216899871826
1746522016845306400,9.086306396484375,1.7254631519317627,-0.02268488146364689,-0.538895308971405
1746522016855295500,9.09629541015625,1.8086358308792114,0.5763819217681885,-0.24722887575626373
1746522016865283300,9.106283447265625,1.758809208869934,1.0711901187896729,-0.14645512402057648
1746522016875272200,9.116272216796874,1.6097267866134644,1.2772456407546997,-0.07996398210525513
1746522016885261300,9.12626123046875,1.4079281091690063,1.1841801404953003,0.08469420671463013
1746522016895249400,9.13624951171875,1.1801499128341675,0.8819252848625183,0.3446272611618042
1746522016905238300,9.14623828125,0.965479850769043,0.508442223072052,0.6269739866256714
1746522016915227400,9.156227294921875,0.8122344017028809,0.18266722559928894,0.8511391878128052
1746522016925215200,9.16621533203125,0.7287823557853699,-0.07143908739089966,0.9924835562705994
1746522016935204400,9.176204345703125,0.6834177374839783,-0.24789264798164368,1.0796467065811157
1746522016945193200,9.186193115234374,0.6797239184379578,-0.3398342728614807,1.1162842512130737
1746522016955182300,9.196182373046875,0.7238363027572632,-0.3486081659793854,1.1050835847854614
1746522016965170400,9.20617041015625,0.7447450757026672,-0.3445790708065033,1.0586031675338745
1746522016975159300,9.2161591796875,0.6794864535331726,-0.37634533643722534,0.986537754535675
1746522016985148400,9.2261484375,0.5062470436096191,-0.4504256844520569,0.9255817532539368
1746522016995136300,9.23613623046875,0.32457709312438965,-0.46140050888061523,0.9520367980003357
1746522017005125400,9.24612548828125,0.09348262846469879,-0.4081394076347351,1.0333391427993774
1746522017015114200,9.2561142578125,-0.1638074815273285,-0.3239894509315491,1.180949330329895
1746522017025102300,9.266102294921875,-0.3498026430606842,-0.19568367302417755,1.3140959739685059
1746522017035091500,9.276091552734375,-0.43102705478668213,-0.11290884763002396,1.3478491306304932
1746522017045080300,9.286080322265626,-0.40892839431762695,-0.071541428565979,1.2898776531219482
1746522017055068200,9.296068115234375,-0.3393484055995941,-0.0512511320412159,1.1569643020629883
1746522017065057300,9.306057373046874,-0.2940872013568878,-0.19220425188541412,0.9506996273994446
1746522017075046400,9.31604638671875,-0.32050225138664246,-0.5550482273101807,0.6693246364593506
1746522017085034500,9.326034423828125,-0.46880146861076355,-1.1600042581558228,0.31519079208374023
1746522017095023400,9.3360234375,-0.776384711265564,-2.045090436935425,-0.06784925609827042
1746522017105012500,9.346012451171875,-1.22081458568573,-2.90435791015625,-0.5130158066749573
1746522017115001300,9.35600146484375,-1.6937257051467896,-3.095367670059204,-1.0679214000701904
1746522017124989200,9.3659892578125,-2.0985493659973145,-2.2404744625091553,-1.7794983386993408
1746522017134978300,9.375978271484374,-2.3529677391052246,-0.33124426007270813,-2.7398061752319336
1746522017144967400,9.385967529296876,-2.1381826400756836,1.9242595434188843,-3.6631710529327393
1746522017154955300,9.395955322265625,-1.6975700855255127,3.571711778640747,-3.9901602268218994
1746522017164944400,9.4059443359375,-1.4170771837234497,3.890625238418579,-3.644788980484009
1746522017174933500,9.41593359375,-1.289048433303833,2.8305530548095703,-2.9049453735351562
1746522017184921300,9.42592138671875,-1.2719842195510864,1.1532734632492065,-2.1112616062164307
1746522017194910200,9.43591015625,-1.4625669717788696,-0.546223521232605,-1.4823888540267944
1746522017204899300,9.4458994140625,-1.8521552085876465,-1.9115692377090454,-1.1307010650634766
1746522017214887400,9.455887451171876,-2.2773566246032715,-2.6512601375579834,-1.0569336414337158
1746522017224876300,9.465876220703125,-2.5092613697052,-2.9937801361083984,-1.1448228359222412
1746522017234865400,9.475865478515624,-2.490389585494995,-2.9093282222747803,-1.3012633323669434
1746522017244853200,9.485853271484375,-2.2799575328826904,-2.430238962173462,-1.3785055875778198
1746522017254842400,9.49584228515625,-2.006500720977783,-1.718470811843872,-1.3077813386917114
1746522017264831200,9.505831298828125,-1.7893714904785156,-0.9150036573410034,-1.1384607553482056
1746522017274819300,9.5158193359375,-1.700832724571228,-0.19563652575016022,-0.9628857374191284
1746522017284808400,9.525808349609376,-1.7282898426055908,0.31009379029273987,-0.8398661017417908
1746522017294797300,9.53579736328125,-1.8254048824310303,0.572196364402771,-0.7754791378974915
1746522017304786400,9.545786376953124,-1.9082942008972168,0.5572155714035034,-0.7498744130134583
1746522017314774300,9.555774169921875,-1.897760272026062,0.38666832447052,-0.7312415838241577
1746522017324763400,9.565763427734375,-1.751694679260254,0.185808464884758,-0.6796324849128723
1746522017334752300,9.575752197265626,-1.458102822303772,0.01430814154446125,-0.5398141145706177
1746522017344740400,9.585740234375,-1.1048805713653564,-0.13392846286296844,-0.29309675097465515
1746522017354729500,9.5957294921875,-0.7739425301551819,-0.2382289618253708,0.029293546453118324
1746522017364718300,9.60571826171875,-0.5251457691192627,-0.33258211612701416,0.3489346504211426
1746522017374706200,9.6157060546875,-0.3120504915714264,-0.38125041127204895,0.5731704235076904
1746522017384695300,9.6256953125,-0.10746750980615616,-0.3097948729991913,0.6674718856811523
1746522017394684400,9.635684326171875,0.09407567232847214,-0.10626661032438278,0.6599343419075012
1746522017404672500,9.645672607421876,0.3123004138469696,0.20553281903266907,0.5700433254241943
1746522017414661400,9.655661376953125,0.543017566204071,0.5123203992843628,0.4675270915031433
1746522017424650500,9.665650390625,0.7091785669326782,0.6810055375099182,0.43965256214141846
1746522017434638300,9.675638427734375,0.8265470266342163,0.7000853419303894,0.5590186715126038
1746522017444627200,9.685627197265624,0.9083787798881531,0.561220645904541,0.8665237426757812
1746522017454616300,9.6956162109375,0.9929413199424744,0.3091375231742859,1.3443238735198975
1746522017464604400,9.7056044921875,1.1263896226882935,0.08114511519670486,1.8410518169403076
1746522017474593300,9.71559326171875,1.3906545639038086,0.15452395379543304,2.114384651184082
1746522017484582400,9.72558251953125,1.714598536491394,0.8163298964500427,1.936702013015747
1746522017494571500,9.735571533203125,1.966156005859375,1.8211594820022583,1.2818255424499512
1746522017504559400,9.745559326171875,2.025907278060913,2.5227270126342773,0.3127923607826233
1746522017514548200,9.75554833984375,1.9535239934921265,2.730684518814087,-0.756158173084259
1746522017524537300,9.765537353515626,1.8729114532470703,2.3727128505706787,-1.722928524017334
1746522017534525400,9.775525390625,1.8275216817855835,1.6548490524291992,-2.392944574356079
1746522017544514300,9.785514404296874,1.8716611862182617,0.8320738077163696,-2.663073778152466
1746522017554503400,9.79550341796875,1.9973163604736328,0.02232610434293747,-2.5091023445129395
1746522017564491300,9.8054912109375,2.1145143508911133,-0.6399080753326416,-2.0594518184661865
1746522017574480400,9.81548046875,2.1579840183258057,-1.018520474433899,-1.536676049232483
1746522017584469200,9.82546923828125,2.1243896484375,-1.1171743869781494,-1.0808403491973877
1746522017594457300,9.835457275390626,2.0224480628967285,-1.0948883295059204,-0.7486839890480042
1746522017604446500,9.845446533203125,1.875807285308838,-1.1083815097808838,-0.49733030796051025
1746522017614435300,9.855435302734374,1.7215584516525269,-1.164534568786621,-0.2756013870239258
1746522017624423200,9.865423095703125,1.5997785329818726,-1.1610050201416016,-0.060050178319215775
1746522017634412300,9.875412353515625,1.514905333518982,-1.0593006610870361,0.14938001334667206
1746522017644401400,9.8854013671875,1.4455773830413818,-0.8940211534500122,0.3507477343082428
1746522017654389500,9.895389404296875,1.3528300523757935,-0.7108364701271057,0.5499519109725952
1746522017664378400,9.90537841796875,1.228072166442871,-0.5370764136314392,0.7426412105560303
1746522017674367500,9.915367431640625,1.0550044775009155,-0.3808540105819702,0.8835413455963135
1746522017684355300,9.925355224609374,0.830165445804596,-0.2552686631679535,0.9737409949302673
1746522017694344200,9.93534423828125,0.585182249546051,-0.18836544454097748,1.0128018856048584
1746522017704333300,9.945333251953125,0.34758108854293823,-0.23013366758823395,1.0167810916900635
1746522017714322400,9.955322509765624,0.11770384758710861,-0.39706718921661377,1.0205937623977661
1746522017724310300,9.965310302734375,-0.0806846097111702,-0.6470493078231812,1.0573171377182007
1746522017734299100,9.975299072265624,-0.17005671560764313,-0.943736732006073,1.146077036857605
1746522017744288300,9.985288330078125,-0.12748953700065613,-1.2692269086837769,1.2678173780441284
1746522017754276400,9.9952763671875,-0.021400244906544685,-1.5162756443023682,1.3201671838760376
1746522017764265200,10.00526513671875,0.07384291291236877,-1.5963256359100342,1.2647819519042969
1746522017774254300,10.01525439453125,0.03066539764404297,-1.5414525270462036,1.1207914352416992
1746522017784242200,10.0252421875,-0.2339172661304474,-1.3641324043273926,0.873044490814209
1746522017794231300,10.035231201171875,-0.7122246623039246,-1.049322485923767,0.5794416069984436
1746522017804220200,10.04522021484375,-1.277044415473938,-0.6807281970977783,0.3622581958770752
1746522017814208300,10.055208251953125,-1.7021491527557373,-0.18948344886302948,0.16548627614974976
1746522017824197400,10.065197265625,-1.7188256978988647,0.8285804390907288,-0.129872128367424
1746522017834186200,10.075186279296876,-1.356799602508545,2.0291759967803955,-0.378778874874115
1746522017844174000,10.085174072265625,-1.0998109579086304,2.6507251262664795,-0.4408006966114044
1746522017854163200,10.0951630859375,-1.1541889905929565,2.4303295612335205,-0.41434940695762634
1746522017864152300,10.10515234375,-1.4734019041061401,1.4360555410385132,-0.3758699297904968
1746522017874140200,10.11514013671875,-1.891111135482788,0.005672235041856766,-0.3139927089214325
1746522017884129300,10.12512939453125,-2.179363489151001,-1.0883653163909912,-0.2598048448562622
1746522017894118400,10.135118408203125,-2.297567129135132,-1.6693696975708008,-0.17061983048915863
1746522017904106200,10.145106201171876,-2.332453489303589,-1.8589808940887451,0.0017876231577247381
1746522017914095000,10.15509521484375,-2.306363582611084,-1.6564040184020996,0.25202783942222595
1746522017924084200,10.165084228515624,-2.312117338180542,-1.1989794969558716,0.5439329147338867
1746522017934072300,10.175072265625,-2.4074361324310303,-0.7102867364883423,0.8209109902381897
1746522017944061200,10.185061279296875,-2.525799512863159,-0.3129351735115051,1.03438138961792
1746522017954050300,10.19505029296875,-2.633683919906616,-0.029585419222712517,1.1494563817977905
1746522017964038100,10.2050380859375,-2.7171289920806885,0.1292918473482132,1.1935527324676514
1746522017974027300,10.21502734375,-2.7750396728515625,0.21313676238059998,1.2317323684692383
1746522017984016100,10.22501611328125,-2.789186716079712,0.2533997595310211,1.3003257513046265
1746522017994004200,10.235004150390624,-2.6838479042053223,0.2443499118089676,1.4227526187896729
1746522018003993300,10.244993408203126,-2.410315990447998,0.220189169049263,1.5872195959091187
1746522018013982200,10.254982177734375,-2.0351617336273193,0.204728364944458,1.7227544784545898
1746522018023970000,10.264969970703126,-1.6209335327148438,0.17055761814117432,1.7773860692977905
1746522018033959200,10.274959228515625,-1.1661529541015625,0.07013218849897385,1.7540946006774902
1746522018043948300,10.2849482421875,-0.7087289094924927,-0.050899963825941086,1.6420069932937622
1746522018053936000,10.29493603515625,-0.32705157995224,-0.15465307235717773,1.4314981698989868
1746522018063925200,10.30492529296875,-0.035142745822668076,-0.22372615337371826,1.1234016418457031
1746522018073914400,10.314914306640626,0.1779695302248001,-0.16212935745716095,0.7757512331008911
1746522018083902200,10.324902099609375,0.3117230534553528,0.015121854841709137,0.47064727544784546
1746522018093891000,10.33489111328125,0.409653902053833,0.1811307966709137,0.24968533217906952
1746522018103880200,10.344880126953125,0.6090127825737,0.3888520300388336,0.1228962168097496
1746522018113868300,10.354868408203124,0.9967228770256042,0.6734909415245056,0.17552825808525085
1746522018123857200,10.364857177734375,1.4316498041152954,0.7700265645980835,0.438191294670105
1746522018133846300,10.37484619140625,1.735263705253601,0.6643431186676025,0.7888390421867371
1746522018143834000,10.384834228515626,1.8821204900741577,0.5474687218666077,1.1145708560943604
1746522018153823200,10.3948232421875,1.9036476612091064,0.48348283767700195,1.3519511222839355
1746522018163812000,10.40481201171875,1.8593933582305908,0.706881046295166,1.344509482383728
1746522018173800200,10.41480029296875,1.856091856956482,1.4982095956802368,0.9027217030525208
1746522018183789300,10.424789306640625,1.8681005239486694,2.4948649406433105,0.08681145310401917
1746522018193778200,10.434778076171876,1.845568060874939,2.879340410232544,-0.7706899642944336
1746522018203766300,10.444766357421875,1.9273369312286377,2.580115795135498,-1.570597767829895
1746522018213755100,10.454755126953126,2.1614601612091064,1.911979079246521,-2.295222282409668
1746522018223744300,10.464744140625,2.359018325805664,1.052137851715088,-2.7836649417877197
1746522018233732000,10.474732177734374,2.3504090309143066,0.2187470644712448,-2.920339345932007
1746522018243721200,10.48472119140625,2.147258996963501,-0.2624557614326477,-2.7342162132263184
1746522018253710300,10.49471044921875,1.8771438598632812,-0.22944527864456177,-2.346522569656372
1746522018263698400,10.504698486328126,1.618011713027954,0.15799273550510406,-1.824317216873169
1746522018273687000,10.51468701171875,1.4011998176574707,0.744441032409668,-1.2381207942962646
1746522018283676200,10.52467626953125,1.2797871828079224,1.3242548704147339,-0.7066494226455688
1746522018293664300,10.534664306640625,1.2041863203048706,1.610963225364685,-0.2624029815196991
1746522018303653000,10.544653076171874,1.1219817399978638,1.5056804418563843,0.07875831425189972
1746522018313642200,10.554642333984376,1.049926519393921,1.143460750579834,0.28308749198913574
1746522018323630300,10.56463037109375,1.0318255424499512,0.645796537399292,0.33096206188201904
1746522018333619200,10.574619140625,1.0543098449707031,0.0891754999756813,0.22238337993621826
1746522018343608000,10.584608154296875,1.072692632675171,-0.4322349429130554,-0.022252453491091728
1746522018353596200,10.59459619140625,1.0841357707977295,-0.8009170889854431,-0.3623082935810089
1746522018363585300,10.604585205078125,1.0722873210906982,-0.984130322933197,-0.7251746654510498
1746522018373574100,10.61457421875,0.9995245337486267,-0.9679486155509949,-1.0176759958267212
1746522018383562200,10.624562255859376,0.8672253489494324,-0.8149031400680542,-1.1702991724014282
1746522018393551000,10.634551025390625,0.6072075366973877,-0.6194186806678772,-1.075952172279358
1746522018403540200,10.644540283203124,0.1957225352525711,-0.45535969734191895,-0.7316040396690369
1746522018413528300,10.6545283203125,-0.30247581005096436,-0.3176981508731842,-0.20394422113895416
1746522018423517200,10.66451708984375,-0.8203046321868896,-0.3465966284275055,0.3959389328956604
1746522018433506300,10.67450634765625,-1.194068193435669,-0.43552038073539734,0.9192282557487488
1746522018443494400,10.684494384765625,-1.3544520139694214,-0.44254419207572937,1.2656586170196533
1746522018453483300,10.694483154296876,-1.3572391271591187,-0.4357578158378601,1.381880283355713
1746522018463472000,10.70447216796875,-1.3522422313690186,-0.398323118686676,1.2498596906661987
1746522018473460200,10.714460205078124,-1.4462062120437622,-0.42607414722442627,0.994608998298645
1746522018483449300,10.724449462890625,-1.63743257522583,-0.505815327167511,0.7376272678375244
1746522018493437200,10.734437255859374,-1.8660972118377686,-0.6243504285812378,0.5890322327613831
1746522018503426300,10.74442626953125,-2.0837316513061523,-0.6515548825263977,0.4739200174808502
1746522018513415400,10.75441552734375,-2.20209002494812,-0.48241686820983887,0.21834497153759003
1746522018523403300,10.7644033203125,-2.167937755584717,0.05665167421102524,-0.24354863166809082
1746522018533392100,10.77439208984375,-2.0331978797912598,0.6752658486366272,-0.7404292225837708
1746522018543381200,10.78438134765625,-1.8719661235809326,0.8258907794952393,-1.048545241355896
1746522018553369300,10.794369384765625,-1.7659648656845093,0.41981714963912964,-1.0701924562454224
1746522018563358200,10.804358154296875,-1.7691938877105713,-0.3606341779232025,-0.8177461624145508
1746522018573347300,10.814347412109376,-1.8154124021530151,-1.0667170286178589,-0.4629344940185547
1746522018583335200,10.824335205078125,-1.8339056968688965,-1.3453553915023804,-0.15510663390159607
1746522018593324300,10.83432421875,-1.7931076288223267,-1.3131632804870605,0.12179286777973175
1746522018603313200,10.844313232421875,-1.7472267150878906,-1.0681703090667725,0.36657145619392395
1746522018613301200,10.85430126953125,-1.7226746082305908,-0.6790162920951843,0.5830265283584595
1746522018623290400,10.864290283203125,-1.7569431066513062,-0.17597311735153198,0.7716140151023865
1746522018633279200,10.874279296875,-1.8384252786636353,0.36476656794548035,0.9386783838272095
1746522018643267000,10.88426708984375,-1.96927809715271,0.8284232020378113,1.1065752506256104
1746522018653256200,10.894256103515625,-2.103416681289673,1.1015056371688843,1.27458655834198
1746522018663245300,10.904245361328124,-2.152160882949829,1.128521203994751,1.4034812450408936
1746522018673233200,10.914233154296875,-2.026364326477051,0.9374608993530273,1.4313631057739258
1746522018683221800,10.9242216796875,-1.7008136510849,0.6185204386711121,1.3147833347320557
1746522018693211000,10.9342109375,-1.1878783702850342,0.2345779836177826,1.0403629541397095
1746522018703198700,10.94419873046875,-0.5840552449226379,-0.22270888090133667,0.6384719610214233
1746522018713187600,10.9541875,-0.04846825450658798,-0.7644370198249817,0.15666323900222778
1746522018723176700,10.9641767578125,0.3585546314716339,-1.3069052696228027,-0.3341919481754303
1746522018733164800,10.974164794921874,0.6542720198631287,-1.716932773590088,-0.7486714124679565
1746522018743154000,10.98415380859375,0.8537614345550537,-1.8969792127609253,-0.9988500475883484
1746522018753142800,10.994142822265625,1.0038927793502808,-1.8097444772720337,-1.0240329504013062
1746522018763130600,11.004130615234375,1.1694992780685425,-1.4399744272232056,-0.8196300864219666
1746522018773119700,11.01411962890625,1.3538076877593994,-0.8592206239700317,-0.405828058719635
1746522018783108600,11.024108642578126,1.5487544536590576,-0.11745623499155045,0.11054021865129471
1746522018793096700,11.0340966796875,1.7383217811584473,0.7200828790664673,0.5539512038230896
1746522018803085800,11.0440859375,1.8316559791564941,1.4295895099639893,0.8056915402412415
1746522018813075000,11.054074951171875,1.7399349212646484,1.7228693962097168,0.8605542778968811
1746522018823062800,11.064062744140625,1.483982801437378,1.5053796768188477,0.7816988825798035
1746522018833051600,11.0740517578125,1.2473143339157104,1.0719798803329468,0.6638034582138062
1746522018843040800,11.084040771484375,1.1437866687774658,0.6352648138999939,0.654339611530304
1746522018853028900,11.09402880859375,1.1388955116271973,0.38526174426078796,0.749460756778717
1746522018863017700,11.104017822265625,1.2574362754821777,0.7650822997093201,0.5662872195243835
1746522018873006800,11.1140068359375,1.4388223886489868,1.6684224605560303,-0.15719188749790192
1746522018882994700,11.12399462890625,1.5297962427139282,2.192742109298706,-1.1371896266937256
1746522018892983600,11.133983642578125,1.4951786994934082,1.9371109008789062,-1.964414119720459
1746522018902972700,11.14397265625,1.4675813913345337,1.2136445045471191,-2.51591157913208
1746522018912960800,11.153960693359375,1.3466814756393433,0.41939401626586914,-2.6134748458862305
1746522018922950000,11.163949951171874,1.0037240982055664,-0.10839177668094635,-2.1209661960601807
1746522018932937700,11.173937744140625,0.6163448095321655,-0.047438010573387146,-1.246101975440979
1746522018942926600,11.183926513671874,0.5070920586585999,0.6209445595741272,-0.3829629719257355
1746522018952915700,11.193915771484376,0.6296169757843018,1.563299536705017,0.2414202094078064
1746522018962903800,11.20390380859375,0.7639689445495605,2.1865148544311523,0.5927162170410156
1746522018972892700,11.213892578125,0.8253029584884644,2.2503161430358887,0.6800388097763062
1746522018982881800,11.2238818359375,0.824662983417511,1.8002328872680664,0.547432005405426
1746522018992869600,11.23386962890625,0.828152060508728,0.9959085583686829,0.27281782031059265
1746522019002858800,11.243858642578125,0.8524004220962524,0.135287806391716,-0.06467048078775406
1746522019012847600,11.25384765625,0.8961947560310364,-0.5597420334815979,-0.362865149974823
1746522019022835700,11.263835693359376,0.9509458541870117,-1.0350114107131958,-0.5576199889183044
1746522019032824800,11.273824951171875,0.9793319702148438,-1.2418055534362793,-0.6389446258544922
1746522019042813700,11.283813720703124,0.9694375395774841,-1.1205427646636963,-0.6304712891578674
1746522019052801500,11.293801513671875,0.9042767286300659,-0.6859353184700012,-0.5857067704200745
1746522019062790700,11.303790771484374,0.7613736391067505,-0.07198134064674377,-0.4739016592502594
1746522019072779800,11.31377978515625,0.5792149901390076,0.43176934123039246,-0.21909335255622864
1746522019082767600,11.323767578125,0.4229089915752411,0.6062620282173157,0.21657370030879974
1746522019092756700,11.3337568359375,0.33370083570480347,0.4591945707798004,0.7567279934883118
1746522019102745900,11.343745849609375,0.2956293523311615,0.04194965958595276,1.2379417419433594
1746522019112734000,11.35373388671875,0.329235702753067,-0.4191500246524811,1.5227389335632324
1746522019122722600,11.36372265625,0.3561655879020691,-0.872740626335144,1.5174732208251953
1746522019132711700,11.373711669921875,0.26857316493988037,-1.3569859266281128,1.229438304901123
1746522019142699800,11.38369970703125,0.0795113667845726,-1.7502492666244507,0.6815065145492554
1746522019152688600,11.393688720703125,-0.18332889676094055,-1.8864649534225464,0.05934547632932663
1746522019162677800,11.403677734375,-0.5278945565223694,-1.804842472076416,-0.3393118977546692
1746522019172665900,11.413665771484375,-0.889186441898346,-1.3469204902648926,-0.3937612473964691
1746522019182654700,11.42365478515625,-1.0528899431228638,-0.6287186741828918,-0.004076083190739155
1746522019192643600,11.4336435546875,-0.9356297254562378,-0.19801783561706543,0.9049870371818542
1746522019202631700,11.443631591796875,-0.43816161155700684,-0.3796675205230713,1.9396506547927856
1746522019212620800,11.453620849609376,0.2682156264781952,-0.8669620156288147,2.2124598026275635
1746522019222609000,11.46360888671875,0.7563658952713013,-1.46549654006958,1.289814829826355
1746522019232597800,11.47359765625,0.7056173086166382,-2.3476099967956543,-0.4727011024951935
1746522019242586600,11.483586669921875,0.23880672454833984,-3.802936315536499,-2.138138771057129
1746522019252574700,11.49357470703125,-0.40917515754699707,-5.191283702850342,-3.039660930633545
1746522019262563600,11.5035634765625,-0.93010413646698,-5.857518196105957,-3.0672953128814697
1746522019272552700,11.513552734375,-1.2660824060440063,-5.743234634399414,-2.319143295288086
1746522019282540800,11.523540771484376,-1.467850923538208,-4.6727118492126465,-1.0974299907684326
1746522019292530000,11.533530029296875,-1.598542332649231,-2.858355760574341,0.15140670537948608
1746522019302518800,11.543518798828124,-1.7471950054168701,-1.022056221961975,1.1012941598892212
1746522019312506600,11.553506591796875,-1.9823932647705078,0.27022111415863037,1.604091763496399
1746522019322495700,11.563495849609374,-2.2877180576324463,0.8743607997894287,1.6871206760406494
1746522019332484600,11.573484619140626,-2.469482421875,0.8034267425537109,1.460046410560608
1746522019342472700,11.58347265625,-2.479081630706787,0.3197019100189209,1.0290441513061523
1746522019352461800,11.5934619140625,-2.380446672439575,-0.1983805149793625,0.5088378190994263
1746522019362451000,11.603450927734375,-2.089670181274414,-0.5578782558441162,0.07241255044937134
1746522019372438800,11.613438720703124,-1.5985466241836548,-0.6926015019416809,-0.11541488021612167
1746522019382427600,11.623427734375,-1.1123075485229492,-0.6294177770614624,-0.10237337648868561
1746522019392416800,11.633416748046875,-0.7356764674186707,-0.4585728645324707,0.014271745458245277
1746522019402404900,11.64340478515625,-0.47411227226257324,-0.22081810235977173,0.17392584681510925
1746522019412393700,11.653393798828125,-0.27160197496414185,0.08845271170139313,0.31786492466926575
1746522019422382800,11.6633828125,-0.09095711261034012,0.3989775776863098,0.3900163471698761
1746522019432370700,11.67337060546875,0.07071094959974289,0.6327136754989624,0.3548399806022644
1746522019442359800,11.68335986328125,0.20150890946388245,0.7887266874313354,0.2571302056312561
1746522019452347600,11.69334765625,0.3550117313861847,0.8514319658279419,0.1725308895111084
1746522019462336800,11.703336669921875,0.545562744140625,0.8996255993843079,0.1269082874059677
1746522019472326000,11.713325927734376,0.7491337060928345,0.9056093692779541,0.13078930974006653
1746522019482313700,11.723313720703125,0.980190098285675,0.8771215677261353,0.1640969216823578
1746522019492302600,11.733302490234376,1.1768425703048706,0.882082462310791,0.19155572354793549
1746522019502291700,11.743291748046875,1.2701607942581177,0.8770299553871155,0.20519989728927612
1746522019512279800,11.75327978515625,1.2748656272888184,1.021416425704956,0.29027751088142395
1746522019522268700,11.7632685546875,1.2470283508300781,1.3736226558685303,0.5790882706642151
1746522019532257800,11.7732578125,1.2334541082382202,1.8802318572998047,1.062761902809143
1746522019542245600,11.78324560546875,1.3233169317245483,2.6939358711242676,1.5067511796951294
1746522019552234800,11.79323486328125,1.4957928657531738,3.705761671066284,1.6437584161758423
1746522019562223600,11.8032236328125,1.5769412517547607,4.386142253875732,1.2478128671646118
1746522019572211700,11.813211669921875,1.522293210029602,4.260706424713135,0.2004954069852829
1746522019582200800,11.823200927734375,1.413955807685852,3.4759421348571777,-1.3068420886993408
1746522019592189700,11.833189697265626,1.3017128705978394,2.2051453590393066,-2.8355586528778076
1746522019602177500,11.843177490234375,1.2236294746398926,0.8573935031890869,-4.070369720458984
1746522019612166700,11.853166748046876,1.1939451694488525,-0.17564769089221954,-4.892964839935303
1746522019622155800,11.86315576171875,1.2670364379882812,-0.8408427238464355,-5.1959686279296875
1746522019632143600,11.8731435546875,1.415207028388977,-1.1970014572143555,-4.898317813873291
1746522019642132700,11.8831328125,1.4847218990325928,-1.2072813510894775,-4.110043048858643
1746522019652120800,11.893120849609375,1.432265043258667,-0.8279333114624023,-3.0820016860961914
1746522019662109700,11.903109619140626,1.2894929647445679,-0.06308381259441376,-2.097658634185791
1746522019672098600,11.9130986328125,1.0841745138168335,0.8616352677345276,-1.240253210067749
1746522019682087700,11.923087646484374,0.8222918510437012,1.6177068948745728,-0.45152121782302856
1746522019692076800,11.933076904296875,0.5666270852088928,2.1889166831970215,0.23917651176452637
1746522019702065700,11.943065673828125,0.35184338688850403,2.428910255432129,0.815196692943573
1746522019712053500,11.953053466796876,0.2938882112503052,2.331170082092285,1.2210890054702759
1746522019722042600,11.963042724609375,0.38480693101882935,1.919371485710144,1.432826280593872
1746522019732031500,11.973031494140624,0.5601783394813538,1.2828447818756104,1.4356162548065186
1746522019742019600,11.98301953125,0.7341759204864502,0.5246475338935852,1.2732532024383545
1746522019752008700,11.9930087890625,0.7599382400512695,-0.22030042111873627,1.0384387969970703
1746522019761997800,12.002997802734376,0.5592581033706665,-0.8349047899246216,0.8141037225723267
1746522019771985400,12.0129853515625,0.20881016552448273,-1.2327567338943481,0.6140521168708801
1746522019781974500,12.022974609375,-0.2414984107017517,-1.3881375789642334,0.5044888854026794
1746522019791962600,12.032962646484375,-0.6853829026222229,-1.3173017501831055,0.5235499143600464
1746522019801951700,12.04295166015625,-0.999189019203186,-1.0000673532485962,0.667704164981842
1746522019811940600,12.052940673828125,-1.0854594707489014,-0.44454681873321533,0.9092824459075928
1746522019821928400,12.062928466796874,-0.9094297289848328,0.21722769737243652,1.2132569551467896
1746522019831917600,12.07291748046875,-0.6652908325195312,0.9535689353942871,1.507189154624939
1746522019841906400,12.082906494140625,-0.538292407989502,1.643667459487915,1.7686525583267212
1746522019851894500,12.09289453125,-0.5530281066894531,2.096531867980957,1.9425042867660522
1746522019861883600,12.102883544921875,-0.651883065700531,2.131282329559326,2.0299601554870605
1746522019871872800,12.112872802734374,-0.8334574103355408,1.615692377090454,2.0340123176574707
1746522019881860600,12.122860595703125,-1.1060506105422974,0.7393264174461365,1.880778193473816
1746522019891849500,12.132849365234375,-1.3910486698150635,-0.18461641669273376,1.5053393840789795
1746522019901838600,12.142838623046876,-1.594566822052002,-0.7668963074684143,1.0158751010894775
1746522019911826700,12.15282666015625,-1.7022804021835327,-0.8052020072937012,0.5405457019805908
1746522019921815600,12.162815673828124,-1.64168381690979,0.003166711423546076,-0.10213634371757507
1746522019931804700,12.1728046875,-1.3984626531600952,1.4710441827774048,-0.8297337889671326
1746522019941792500,12.18279248046875,-1.2276794910430908,2.5253381729125977,-1.3312302827835083
1746522019951781600,12.19278173828125,-1.328728437423706,2.2734363079071045,-1.427212119102478
1746522019961769500,12.20276953125,-1.6739310026168823,0.5980599522590637,-1.0603278875350952
1746522019971758600,12.212758544921876,-2.0601184368133545,-1.4801486730575562,-0.4039824604988098
1746522019981747700,12.222747802734375,-2.2669711112976074,-2.775728940963745,0.2477351278066635
1746522019991735800,12.23273583984375,-2.2181971073150635,-3.09709095954895,0.7241610884666443
1746522020001724700,12.242724609375,-2.088574171066284,-2.71077823638916,1.0748393535614014
1746522020011713500,12.252713623046875,-2.0255956649780273,-1.9416606426239014,1.326422095298767
1746522020021701600,12.26270166015625,-2.0789685249328613,-1.082275152206421,1.4875574111938477
1746522020031690500,12.2726904296875,-2.227337121963501,-0.43570199608802795,1.6183290481567383
1746522020041679600,12.2826796875,-2.453552722930908,-0.23581337928771973,1.7827718257904053
1746522020051667700,12.292667724609375,-2.6653099060058594,-0.3365437090396881,1.9074125289916992
1746522020061656800,12.30265673828125,-2.7133705615997314,-0.4731399118900299,1.9291625022888184
1746522020071644700,12.312644775390625,-2.62610125541687,-0.5682852268218994,1.8837101459503174
1746522020081633500,12.322633544921874,-2.461141586303711,-0.592670738697052,1.7729148864746094
1746522020091622700,12.33262255859375,-2.2211668491363525,-0.564278244972229,1.5817193984985352
1746522020101610800,12.34261083984375,-1.9087566137313843,-0.5598462224006653,1.3160778284072876
1746522020111599600,12.352599609375,-1.5613863468170166,-0.6126840114593506,0.9832578897476196
1746522020121588700,12.362588623046875,-1.2521570920944214,-0.7862981557846069,0.592016875743866
1746522020131576600,12.37257666015625,-1.0148059129714966,-1.0498783588409424,0.21586079895496368
1746522020141565400,12.3825654296875,-0.8496022820472717,-1.31770658493042,-0.07131663709878922
1746522020151554600,12.392554443359375,-0.660206139087677,-1.4005281925201416,-0.2641183137893677
1746522020161542700,12.402542724609376,-0.35957711935043335,-1.283626914024353,-0.34825369715690613
1746522020171531800,12.41253173828125,0.04822954908013344,-1.007422685623169,-0.3461010456085205
1746522020181520600,12.422520751953124,0.5321778655052185,-0.5501829981803894,-0.29347753524780273
1746522020191508500,12.432508544921875,1.0202642679214478,-0.06998749822378159,-0.18766802549362183
1746522020201497600,12.44249755859375,1.4317772388458252,0.3227698802947998,-0.046901315450668335
1746522020211485700,12.452485595703125,1.7362240552902222,0.7007367610931396,0.05007584020495415
1746522020221474600,12.462474609375,1.9059600830078125,0.9884836077690125,0.08678644895553589
1746522020231463700,12.472463623046876,1.9294873476028442,1.1109092235565186,0.12049994617700577
1746522020241451500,12.482451416015625,1.851269245147705,1.056918740272522,0.20114605128765106
1746522020251440600,12.492440673828124,1.7198528051376343,0.9283896088600159,0.2955596446990967
1746522020261429500,12.502429443359375,1.5577120780944824,0.8334506154060364,0.22403086721897125
1746522020271417600,12.51241748046875,1.4728176593780518,0.9272966384887695,-0.17728035151958466
1746522020281406700,12.52240673828125,1.5414551496505737,1.2970268726348877,-0.9432406425476074
1746522020291395600,12.5323955078125,1.6707639694213867,1.9515289068222046,-1.9187732934951782
